plausibility,group,word_num,word,distractor,on_right,correct,rt,sentence,trial_num,subject,MeanCor,N1,N2,PlausibilityValue,oddsratio,Whose,Predictability,logoddsratio,whichfirst,lowerbounddeltap,deltap,logdeltaP
Implausible,23,6,license,reveals,0,1,7.065613363597717,The new taxi driver installed the license plate for the cab he just bought.,4,1,0.9233449477351916,license,plate,-0.7240162539558201,0.0324,Staubs,Low,1.1252657720514594,1,NA,NA,NA
Implausible,23,7,plate,proud,0,1,7.01301578963963,The new taxi driver installed the license plate for the cab he just bought.,4,1,0.9233449477351916,license,plate,-0.7240162539558201,0.0324,Staubs,Low,1.1252657720514594,0,NA,NA,NA
Implausible,11,8,wastewater,swapped,0,1,7.269616749608169,I was really worried after I administered the wastewater treatment because it wasn't adequately tested.,7,1,0.9233449477351916,wastewater,treatment,-1.1066252539558201,0.1460549,Ours,High,2.6310899276781887,1,NA,NA,NA
Implausible,11,9,treatment,implicitly,0,1,7.456454555176209,I was really worried after I administered the wastewater treatment because it wasn't adequately tested.,7,1,0.9233449477351916,wastewater,treatment,-1.1066252539558201,0.1460549,Ours,High,2.6310899276781887,0,NA,NA,NA
Plausible,8,5,baking,bailey,0,1,6.46302945692067,Timmy absolutely loves talking about baking sheets with anyone who is willing.,11,1,0.9233449477351916,baking,sheets,2.02380974604418,0.1552467,Ours,High,2.6921228138022038,1,NA,NA,NA
Plausible,8,6,sheets,define,1,1,7.8383433155571165,Timmy absolutely loves talking about baking sheets with anyone who is willing.,11,1,0.9233449477351916,baking,sheets,2.02380974604418,0.1552467,Ours,High,2.6921228138022038,0,NA,NA,NA
Implausible,39,4,ceiling,breathe,0,1,6.863803391452954,Ricardo leaned against the ceiling supports while he ate his lunch.,12,1,0.9233449477351916,ceiling,supports,-1.3240162539558202,8.08e-5,Staubs,Low,-4.868670964201911,1,NA,NA,NA
Implausible,39,5,supports,gotten,1,1,7.224753405767971,Ricardo leaned against the ceiling supports while he ate his lunch.,12,1,0.9233449477351916,ceiling,supports,-1.3240162539558202,8.08e-5,Staubs,Low,-4.868670964201911,0,NA,NA,NA
Plausible,12,12,lung,troy,1,1,7.024649030453636,"Due to her difficulty of breathing, Jamie was really worried about her lung cancer because it is hard to treat.",13,1,0.9233449477351916,lung,cancer,1.41511374604418,0.1379383,Ours,High,2.57391383298145,1,NA,NA,NA
Plausible,12,13,cancer,wonder,1,1,7.142827401161621,"Due to her difficulty of breathing, Jamie was really worried about her lung cancer because it is hard to treat.",13,1,0.9233449477351916,lung,cancer,1.41511374604418,0.1379383,Ours,High,2.57391383298145,0,NA,NA,NA
Implausible,29,6,cafeteria,coincide,0,1,6.939253946041508,The new principal talked to the cafeteria manager at the end of the school day.,16,1,0.9233449477351916,cafeteria,manager,-1.15010325395582,0.002809,Staubs,Low,-1.320064102624718,1,NA,NA,NA
Implausible,29,7,manager,yours,1,1,6.717804695023691,The new principal talked to the cafeteria manager at the end of the school day.,16,1,0.9233449477351916,cafeteria,manager,-1.15010325395582,0.002809,Staubs,Low,-1.320064102624718,0,NA,NA,NA
Implausible,19,17,toilet,reply,0,1,6.732210706467206,The worst part about using the bathroom in public is that they always run out of the toilet paper no matter when you go.,19,1,0.9233449477351916,toilet,paper,-0.9240162539558203,0.11059946,Ours,High,2.353022555870178,1,NA,NA,NA
Implausible,19,18,paper,ended,1,1,6.391917113392602,The worst part about using the bathroom in public is that they always run out of the toilet paper no matter when you go.,19,1,0.9233449477351916,toilet,paper,-0.9240162539558203,0.11059946,Ours,High,2.353022555870178,0,NA,NA,NA
Implausible,33,4,cabinet,suppose,1,1,7.631431664576906,The dealer counted the cabinet drawers before making the sale.,20,1,0.9233449477351916,cabinet,drawers,-1.12401625395582,7.71e-4,Staubs,Low,-2.612959556165632,1,NA,NA,NA
Implausible,33,5,drawers,forties,1,1,7.080026499922591,The dealer counted the cabinet drawers before making the sale.,20,1,0.9233449477351916,cabinet,drawers,-1.12401625395582,7.71e-4,Staubs,Low,-2.612959556165632,0,NA,NA,NA
Plausible,36,4,bathroom,declined,1,1,6.620073206530356,The visitors dirtied the bathroom towels on the first day of their stay.,23,1,0.9233449477351916,bathroom,towels,1.34265074604418,3.19e-4,Staubs,Low,-3.4954568269441175,1,NA,NA,NA
Plausible,36,5,towels,genera,0,1,6.651571873589727,The visitors dirtied the bathroom towels on the first day of their stay.,23,1,0.9233449477351916,bathroom,towels,1.34265074604418,3.19e-4,Staubs,Low,-3.4954568269441175,0,NA,NA,NA
Plausible,24,4,funeral,yeah,1,1,6.539585955617669,Sam went to the funeral home so that they would send a limousine.,26,1,0.9233449477351916,funeral,home,2.19772274604418,0.02871,Staubs,Low,1.004352843386148,1,NA,NA,NA
Plausible,24,5,home,rise,1,1,7.095064377287131,Sam went to the funeral home so that they would send a limousine.,26,1,0.9233449477351916,funeral,home,2.19772274604418,0.02871,Staubs,Low,1.004352843386148,0,NA,NA,NA
Implausible,21,9,junk,der,1,1,6.60934924316738,Evan said that he shouldn't have eaten all his junk food since now he feels bad.,31,1,0.9233449477351916,junk,food,-1.1990162539558202,0.105548352,Ours,High,2.306276509972274,1,NA,NA,NA
Implausible,21,10,food,nova,1,1,6.270988431858299,Evan said that he shouldn't have eaten all his junk food since now he feels bad.,31,1,0.9233449477351916,junk,food,-1.1990162539558202,0.105548352,Ours,High,2.306276509972274,0,NA,NA,NA
Implausible,41,3,party,sir,0,1,6.948897222313312,Kim modeled the party outfit that her mother had chosen.,36,1,0.9233449477351916,party,outfit,-1.12401625395582,1.54e-5,Staubs,Low,-6.526280420309378,1,NA,NA,NA
Implausible,41,4,outfit,manage,1,1,6.7580945044277305,Kim modeled the party outfit that her mother had chosen.,36,1,0.9233449477351916,party,outfit,-1.12401625395582,1.54e-5,Staubs,Low,-6.526280420309378,0,NA,NA,NA
Plausible,40,4,elephant,minimize,1,1,6.76849321164863,The children loved the elephant shows that took place on Tuesday.,39,1,0.9233449477351916,elephant,shows,1.59265074604418,1.99e-5,Staubs,Low,-6.2699281979985155,1,NA,NA,NA
Plausible,40,5,shows,doubt,0,1,7.563719668414366,The children loved the elephant shows that took place on Tuesday.,39,1,0.9233449477351916,elephant,shows,1.59265074604418,1.99e-5,Staubs,Low,-6.2699281979985155,0,NA,NA,NA
Plausible,38,4,kitchen,happens,0,1,6.954638864880987,The contractor admired the kitchen fixtures after the renovation.,41,1,0.9233449477351916,kitchen,fixtures,1.71765074604418,1.37e-4,Staubs,Low,-4.340667003900837,1,NA,NA,NA
Plausible,38,5,fixtures,cinnamon,1,1,7.121252453244542,The contractor admired the kitchen fixtures after the renovation.,41,1,0.9233449477351916,kitchen,fixtures,1.71765074604418,1.37e-4,Staubs,Low,-4.340667003900837,0,NA,NA,NA
Implausible,35,7,problem,follows,0,1,7.889459149404524,The teacher was unable to scold the problem child in her class.,48,1,0.9233449477351916,problem,child,-1.7587992539558202,3.68e-4,Staubs,Low,-3.3525649915600306,1,NA,NA,NA
Implausible,35,8,child,yours,0,1,6.654152520183219,The teacher was unable to scold the problem child in her class.,48,1,0.9233449477351916,problem,child,-1.7587992539558202,3.68e-4,Staubs,Low,-3.3525649915600306,0,NA,NA,NA
Plausible,42,5,surface,anybody,0,1,6.448889394146858,The astronaut landed on the surface crater that had been rumored to exist.,50,1,0.9233449477351916,surface,crater,0.95598374604418,2.86e-6,Staubs,Low,-8.2098263048972,1,NA,NA,NA
Plausible,42,6,crater,redeem,1,1,7.011213987350367,The astronaut landed on the surface crater that had been rumored to exist.,50,1,0.9233449477351916,surface,crater,0.95598374604418,2.86e-6,Staubs,Low,-8.2098263048972,0,NA,NA,NA
Plausible,30,5,safety,anyone,1,1,7.3833681469923835,Mary was reassured about the safety belt because it was a big improvement.,53,1,0.9233449477351916,safety,belt,0.2176507460441801,0.002332,Staubs,Low,-1.506166382258579,1,NA,NA,NA
Plausible,30,6,belt,sees,0,1,6.3561076606958915,Mary was reassured about the safety belt because it was a big improvement.,53,1,0.9233449477351916,safety,belt,0.2176507460441801,0.002332,Staubs,Low,-1.506166382258579,0,NA,NA,NA
Implausible,9,3,baking,bailey,0,1,6.933423025730715,My mom received baking dishes from the new grocery store.,58,1,0.9233449477351916,baking,dishes,-1.80227725395582,0.1538439,Ours,High,2.6830458012264087,1,NA,NA,NA
Implausible,9,4,dishes,quoted,0,1,6.573680166960646,My mom received baking dishes from the new grocery store.,58,1,0.9233449477351916,baking,dishes,-1.80227725395582,0.1538439,Ours,High,2.6830458012264087,0,NA,NA,NA
Implausible,5,7,insider,mammals,0,1,6.950814768442584,I read that John was arrested for insider trading that cost one company millions of dollars.,59,1,0.9233449477351916,insider,trading,-1.15010325395582,0.2203773,Ours,High,3.0424484266722773,1,NA,NA,NA
Implausible,5,8,trading,cute,0,1,6.298949246855942,I read that John was arrested for insider trading that cost one company millions of dollars.,59,1,0.9233449477351916,insider,trading,-1.15010325395582,0.2203773,Ours,High,3.0424484266722773,0,NA,NA,NA
Plausible,34,7,weight,except,0,1,6.48768401848461,"It required a great effort, but the weight lifter finally won the competition.",63,1,0.9233449477351916,weight,lifter,-0.4544512539558201,7.38e-4,Staubs,Low,-2.6567041051284885,1,NA,NA,NA
Plausible,34,8,lifter,solute,1,1,7.143617602704121,"It required a great effort, but the weight lifter finally won the competition.",63,1,0.9233449477351916,weight,lifter,-0.4544512539558201,7.38e-4,Staubs,Low,-2.6567041051284885,0,NA,NA,NA
Plausible,32,5,service,anymore,0,1,6.641182169740591,Gordon was annoyed by the service charges at the local mortgage company.,65,1,0.9233449477351916,service,charges,1.7629407460441797,0.001149,Staubs,Low,-2.2140006518802053,1,NA,NA,NA
Plausible,32,6,charges,glad,0,1,6.464588303689961,Gordon was annoyed by the service charges at the local mortgage company.,65,1,0.9233449477351916,service,charges,1.7629407460441797,0.001149,Staubs,Low,-2.2140006518802053,0,NA,NA,NA
Plausible,26,3,garbage,nowhere,1,1,6.523562306149512,Cindy smelled the garbage truck as it drove by her house.,68,1,0.9233449477351916,garbage,truck,1.80641874604418,0.015322,Staubs,Low,0.37639705334780515,1,NA,NA,NA
Plausible,26,4,truck,roman,1,1,6.447305862541213,Cindy smelled the garbage truck as it drove by her house.,68,1,0.9233449477351916,garbage,truck,1.80641874604418,0.015322,Staubs,Low,0.37639705334780515,0,NA,NA,NA
Implausible,17,6,web,etc,1,1,6.70196036600254,I heard that Billy read a web site about dogs.,74,1,0.9233449477351916,web,site,-2.01966825395582,0.1143555,Ours,High,2.3864193665102027,1,NA,NA,NA
Implausible,17,7,site,anti,0,1,6.53813982376767,I heard that Billy read a web site about dogs.,74,1,0.9233449477351916,web,site,-2.01966825395582,0.1143555,Ours,High,2.3864193665102027,0,NA,NA,NA
Implausible,3,10,dining,treaty,0,1,7.118826249062078,When I was a kid I hated the color of dining rooms because they were always so boring.,77,1,0.9233449477351916,dining,rooms,-2.3240162539558202,0.3117497,Ours,High,3.3893079715033156,1,NA,NA,NA
Implausible,3,11,rooms,aware,0,1,6.478509642208569,When I was a kid I hated the color of dining rooms because they were always so boring.,77,1,0.9233449477351916,dining,rooms,-2.3240162539558202,0.3117497,Ours,High,3.3893079715033156,0,NA,NA,NA
Implausible,1,9,steering,appealed,0,1,6.954638864880987,The hardest part about painting my car is the steering wheel is oddly shaped.,81,1,0.9233449477351916,steering,wheel,-2.10662525395582,0.5464651,Ours,High,3.950577793897361,1,NA,NA,NA
Implausible,1,10,wheel,cares,0,1,6.212606095751519,The hardest part about painting my car is the steering wheel is oddly shaped.,81,1,0.9233449477351916,steering,wheel,-2.10662525395582,0.5464651,Ours,High,3.950577793897361,0,NA,NA,NA
Implausible,31,3,season,anyone,1,0,7.327123292259293,Arnie bought the season tickets though they cost more than last year.,83,1,0.9233449477351916,season,tickets,-1.16401625395582,0.002293,Staubs,Low,-1.5230316468710567,1,NA,NA,NA
Implausible,31,4,tickets,applies,1,1,6.739336627357174,Arnie bought the season tickets though they cost more than last year.,83,1,0.9233449477351916,season,tickets,-1.16401625395582,0.002293,Staubs,Low,-1.5230316468710567,0,NA,NA,NA
Plausible,2,12,locker,sang,0,1,6.473890696352274,Kimmy panicked when she realized that she left the books in the locker room after gym class.,88,1,0.9233449477351916,locker,room,1.80641874604418,0.5015731,Ours,High,3.8648567087446786,1,NA,NA,NA
Plausible,2,13,room,smoked,0,1,6.84587987526405,Kimmy panicked when she realized that she left the books in the locker room after gym class.,88,1,0.9233449477351916,locker,room,1.80641874604418,0.5015731,Ours,High,3.8648567087446786,0,NA,NA,NA
Implausible,25,5,station,suppose,0,1,6.626717749249025,Barbara went over in her station wagon and put some money in the parking meter.,93,1,0.9233449477351916,station,wagon,-0.8892332539558203,0.015707,Staubs,Low,0.4012138221140704,1,NA,NA,NA
Implausible,25,6,wagon,creep,0,1,6.278521424165844,Barbara went over in her station wagon and put some money in the parking meter.,93,1,0.9233449477351916,station,wagon,-0.8892332539558203,0.015707,Staubs,Low,0.4012138221140704,0,NA,NA,NA
Plausible,10,9,ice,fort,1,1,6.717804695023691,One of my favorite feelings is when I eat ice cream because it's so sweet.,99,1,0.9233449477351916,ice,cream,0.2846797460441799,0.1511365,Ours,High,2.6652907512400463,1,NA,NA,NA
Plausible,10,10,cream,naval,0,1,6.660575149839686,One of my favorite feelings is when I eat ice cream because it's so sweet.,99,1,0.9233449477351916,ice,cream,0.2846797460441799,0.1511365,Ours,High,2.6652907512400463,0,NA,NA,NA
Implausible,37,4,elevator,academia,1,0,6.823286122355687,The maid scolded the elevator mechanic who was goofing off.,108,1,0.9233449477351916,elevator,mechanic,-2.1990162539558202,1.99e-4,Staubs,Low,-3.9673431050044687,1,NA,NA,NA
Implausible,37,5,mechanic,diaspora,1,1,7.090076835776092,The maid scolded the elevator mechanic who was goofing off.,108,1,0.9233449477351916,elevator,mechanic,-2.1990162539558202,1.99e-4,Staubs,Low,-3.9673431050044687,0,NA,NA,NA
Plausible,4,4,peanut,housed,1,1,6.419994928147142,Jimmy picked up the peanut butter after he finished working.,109,1,0.9233449477351916,peanut,butter,1.41511374604418,0.2757128,Ours,High,3.2664670934812383,1,NA,NA,NA
Plausible,4,5,butter,tragic,1,1,7.317212408359839,Jimmy picked up the peanut butter after he finished working.,109,1,0.9233449477351916,peanut,butter,1.41511374604418,0.2757128,Ours,High,3.2664670934812383,0,NA,NA,NA
Plausible,22,7,concert,exist,1,1,6.71901315438526,Jane looked forward to going to the concert hall after it had been remodeled.,110,1,0.9233449477351916,concert,hall,1.5455487460441795,0.05123,Staubs,Low,1.5834326472042863,1,NA,NA,NA
Plausible,22,8,hall,worry,1,1,7.203405521083095,Jane looked forward to going to the concert hall after it had been remodeled.,110,1,0.9233449477351916,concert,hall,1.5455487460441795,0.05123,Staubs,Low,1.5834326472042863,0,NA,NA,NA
Implausible,27,5,traffic,yeah,1,1,6.666956792429207,Nora was slowed at the traffic light near the new mall.,116,1,0.9233449477351916,traffic,light,-0.9906832539558201,0.013149,Staubs,Low,0.2234530593579569,1,NA,NA,NA
Implausible,27,6,light,happens,1,1,6.61472560020376,Nora was slowed at the traffic light near the new mall.,116,1,0.9233449477351916,traffic,light,-0.9906832539558201,0.013149,Staubs,Low,0.2234530593579569,0,NA,NA,NA
Plausible,6,4,dairy,fined,0,0,6.7226297948554485,The manager found the dairy products in the tracking system.,118,1,0.9233449477351916,dairy,products,0.9368537460441795,0.1916258,Ours,High,2.9026518612570524,1,NA,NA,NA
Plausible,6,5,products,feedback,1,0,6.884486652042782,The manager found the dairy products in the tracking system.,118,1,0.9233449477351916,dairy,products,0.9368537460441795,0.1916258,Ours,High,2.9026518612570524,0,NA,NA,NA
Implausible,13,7,graduate,honestly,0,1,6.520621127558696,Sally said she is attending that new graduate school everyone was talking about.,120,1,0.9233449477351916,graduate,school,-1.4906832539558201,0.1368266,Ours,High,2.5658217799841996,1,NA,NA,NA
Implausible,13,8,school,forget,0,1,6.244166900663736,Sally said she is attending that new graduate school everyone was talking about.,120,1,0.9233449477351916,graduate,school,-1.4906832539558201,0.1368266,Ours,High,2.5658217799841996,0,NA,NA,NA
Plausible,28,4,package,bye,1,1,6.721425700790643,Jane carefully examined the package deal to make sure it was a bargain.,122,1,0.9233449477351916,package,deal,2.21765074604418,0.006036,Staubs,Low,-0.5551511098412218,1,NA,NA,NA
Plausible,28,5,deal,prefer,0,1,6.63200177739563,Jane carefully examined the package deal to make sure it was a bargain.,122,1,0.9233449477351916,package,deal,2.21765074604418,0.006036,Staubs,Low,-0.5551511098412218,0,NA,NA,NA
Implausible,7,4,alcoholics,centimeter,0,0,6.805722553416985,The social worker founded alcoholics anonymous to help people.,124,1,0.9233449477351916,alcoholics,anonymous,-1.8892332539558203,0.1876327,Ours,High,2.881593677671841,1,NA,NA,NA
Implausible,7,5,anonymous,telescope,1,1,6.683360945766275,The social worker founded alcoholics anonymous to help people.,124,1,0.9233449477351916,alcoholics,anonymous,-1.8892332539558203,0.1876327,Ours,High,2.881593677671841,0,NA,NA,NA
Plausible,20,8,prescription,encouraged,1,1,6.664409020350408,The doctor told me to pick up my prescription drugs in order to prevent any further damage to my skin.,135,1,0.9233449477351916,prescription,drugs,1.9803317460441798,0.1027533,Ours,High,2.2794383189021077,1,NA,NA,NA
Plausible,20,9,drugs,pre,0,1,6.45833828334479,The doctor told me to pick up my prescription drugs in order to prevent any further damage to my skin.,135,1,0.9233449477351916,prescription,drugs,1.9803317460441798,0.1027533,Ours,High,2.2794383189021077,0,NA,NA,NA
Implausible,40,4,elephant,minimize,1,1,7.557472901614746,The children attended the elephant shows that took place on Tuesday.,6,2,0.9753521126760564,elephant,shows,-1.4979292539558204,1.99e-5,Staubs,Low,-6.2699281979985155,1,NA,NA,NA
Implausible,40,5,shows,doubt,0,1,6.826545223556594,The children attended the elephant shows that took place on Tuesday.,6,2,0.9753521126760564,elephant,shows,-1.4979292539558204,1.99e-5,Staubs,Low,-6.2699281979985155,0,NA,NA,NA
Plausible,25,5,station,suppose,0,1,7.347299700743164,Barbara went over to her station wagon and put some money in the parking meter.,7,2,0.9753521126760564,station,wagon,1.4259837460441798,0.015707,Staubs,Low,0.4012138221140704,1,NA,NA,NA
Plausible,25,6,wagon,creep,1,1,7.0326242610280065,Barbara went over to her station wagon and put some money in the parking meter.,7,2,0.9753521126760564,station,wagon,1.4259837460441798,0.015707,Staubs,Low,0.4012138221140704,0,NA,NA,NA
Implausible,24,3,funeral,cent,0,1,7.385230923066573,Sam phoned the funeral home so that they would send a limousine.,12,2,0.9753521126760564,funeral,home,-1.1990162539558202,0.02871,Staubs,Low,1.004352843386148,1,NA,NA,NA
Implausible,24,4,home,yeah,1,1,6.8001700683022,Sam phoned the funeral home so that they would send a limousine.,12,2,0.9753521126760564,funeral,home,-1.1990162539558202,0.02871,Staubs,Low,1.004352843386148,0,NA,NA,NA
Implausible,20,10,prescription,recipients,1,1,7.444248649496705,The doctor told me to stop my recreational use of prescription drugs in order to prevent any further damage to my skin.,13,2,0.9753521126760564,prescription,drugs,0.009316746044179425,0.1027533,Ours,High,2.2794383189021077,1,NA,NA,NA
Implausible,20,11,drugs,feels,1,1,6.480044561926653,The doctor told me to stop my recreational use of prescription drugs in order to prevent any further damage to my skin.,13,2,0.9753521126760564,prescription,drugs,0.009316746044179425,0.1027533,Ours,High,2.2794383189021077,0,NA,NA,NA
Implausible,6,4,dairy,fined,1,1,7.613324979540639,The manager logged the dairy products in the tracking system.,15,2,0.9753521126760564,dairy,products,-0.8656832539558201,0.1916258,Ours,High,2.9026518612570524,1,NA,NA,NA
Implausible,6,5,products,feedback,1,1,6.7661917146603505,The manager logged the dairy products in the tracking system.,15,2,0.9753521126760564,dairy,products,-0.8656832539558201,0.1916258,Ours,High,2.9026518612570524,0,NA,NA,NA
Plausible,1,9,steering,appealed,0,1,6.584791392385716,The hardest part about driving my car is the steering wheel is oddly shaped.,17,2,0.9753521126760564,steering,wheel,1.4259837460441798,0.5464651,Ours,High,3.950577793897361,1,NA,NA,NA
Plausible,1,10,wheel,cares,0,1,6.371611847231857,The hardest part about driving my car is the steering wheel is oddly shaped.,17,2,0.9753521126760564,steering,wheel,1.4259837460441798,0.5464651,Ours,High,3.950577793897361,0,NA,NA,NA
Implausible,42,5,surface,anybody,1,1,7.1204443723924875,The astronaut dropped into the surface crater that had been rumored to exist.,32,2,0.9753521126760564,surface,crater,-0.8457552539558204,2.86e-6,Staubs,Low,-8.2098263048972,1,NA,NA,NA
Implausible,42,6,crater,redeem,1,1,7.4489161025442,The astronaut dropped into the surface crater that had been rumored to exist.,32,2,0.9753521126760564,surface,crater,-0.8457552539558204,2.86e-6,Staubs,Low,-8.2098263048972,0,NA,NA,NA
Implausible,26,3,garbage,nowhere,1,1,7.02108396428914,Cindy heard the garbage truck as it drove by her house.,36,2,0.9753521126760564,garbage,truck,-0.32401625395582023,0.015322,Staubs,Low,0.37639705334780515,1,NA,NA,NA
Implausible,26,4,truck,roman,1,1,6.517671272912275,Cindy heard the garbage truck as it drove by her house.,36,2,0.9753521126760564,garbage,truck,-0.32401625395582023,0.015322,Staubs,Low,0.37639705334780515,0,NA,NA,NA
Plausible,31,3,season,anyone,1,1,7.010311867307229,Arnie enjoyed the season tickets though they cost more than last year.,37,2,0.9753521126760564,season,tickets,0.6759837460441798,0.002293,Staubs,Low,-1.5230316468710567,1,NA,NA,NA
Plausible,31,4,tickets,applies,0,1,7.27655640271871,Arnie enjoyed the season tickets though they cost more than last year.,37,2,0.9753521126760564,season,tickets,0.6759837460441798,0.002293,Staubs,Low,-1.5230316468710567,0,NA,NA,NA
Plausible,17,7,web,anti,1,1,6.736966958001855,I heard that Billy stumbled upon a web site about dogs.,38,2,0.9753521126760564,web,site,0.4759837460441796,0.1143555,Ours,High,2.3864193665102027,1,NA,NA,NA
Plausible,17,8,site,worst,0,1,6.612041034833092,I heard that Billy stumbled upon a web site about dogs.,38,2,0.9753521126760564,web,site,0.4759837460441796,0.1143555,Ours,High,2.3864193665102027,0,NA,NA,NA
Implausible,2,13,locker,smoked,0,1,7.294377299288821,Kimmy panicked when she realized that she left the faucet running in the locker room after gym class.,41,2,0.9753521126760564,locker,room,-1.4906832539558201,0.5015731,Ours,High,3.8648567087446786,1,NA,NA,NA
Implausible,2,14,room,stars,0,1,6.570882962339584,Kimmy panicked when she realized that she left the faucet running in the locker room after gym class.,41,2,0.9753521126760564,locker,room,-1.4906832539558201,0.5015731,Ours,High,3.8648567087446786,0,NA,NA,NA
Implausible,22,6,concert,scored,0,1,6.668228248417403,Jane looked forward to visiting the concert hall after it had been remodeled.,47,2,0.9753521126760564,concert,hall,-0.32401625395582023,0.05123,Staubs,Low,1.5834326472042863,1,NA,NA,NA
Implausible,22,7,hall,exist,1,1,7.544861068658458,Jane looked forward to visiting the concert hall after it had been remodeled.,47,2,0.9753521126760564,concert,hall,-0.32401625395582023,0.05123,Staubs,Low,1.5834326472042863,0,NA,NA,NA
Plausible,9,3,baking,bailey,1,1,7.0192966537150445,My mom loves baking dishes from the new grocery store.,48,2,0.9753521126760564,baking,dishes,2.3843167460441794,0.1538439,Ours,High,2.6830458012264087,1,NA,NA,NA
Plausible,9,4,dishes,quoted,0,1,7.510977752014095,My mom loves baking dishes from the new grocery store.,48,2,0.9753521126760564,baking,dishes,2.3843167460441794,0.1538439,Ours,High,2.6830458012264087,0,NA,NA,NA
Plausible,27,6,traffic,happens,0,1,6.717804695023691,Nora was held up by the traffic light near the new mall.,50,2,0.9753521126760564,traffic,light,1.9368537460441795,0.013149,Staubs,Low,0.2234530593579569,1,NA,NA,NA
Plausible,27,7,light,yours,1,1,6.593044534142437,Nora was held up by the traffic light near the new mall.,50,2,0.9753521126760564,traffic,light,1.9368537460441795,0.013149,Staubs,Low,0.2234530593579569,0,NA,NA,NA
Implausible,12,12,lung,troy,0,1,6.740519359606223,"Due to her difficulty of breathing, Jamie was really worried about having lung cancer because it is hard to treat.",54,2,0.9753521126760564,lung,cancer,-1.0040162539558204,0.1379383,Ours,High,2.57391383298145,1,NA,NA,NA
Implausible,12,13,cancer,wonder,0,1,6.499787040655854,"Due to her difficulty of breathing, Jamie was really worried about having lung cancer because it is hard to treat.",54,2,0.9753521126760564,lung,cancer,-1.0040162539558204,0.1379383,Ours,High,2.57391383298145,0,NA,NA,NA
Implausible,28,5,package,prefer,0,1,7.329749689041512,Jane listened carefully to the package deal to make sure it was a bargain.,55,2,0.9753521126760564,package,deal,-0.9327122539558204,0.006036,Staubs,Low,-0.5551511098412218,1,NA,NA,NA
Implausible,28,6,deal,fat,0,1,6.9411900550683745,Jane listened carefully to the package deal to make sure it was a bargain.,55,2,0.9753521126760564,package,deal,-0.9327122539558204,0.006036,Staubs,Low,-0.5551511098412218,0,NA,NA,NA
Plausible,3,7,dining,lakes,0,1,6.4967749901858625,When I was a kid I hated dining rooms because they were always so boring.,56,2,0.9753521126760564,dining,rooms,-0.11568325395582058,0.3117497,Ours,High,3.3893079715033156,1,NA,NA,NA
Plausible,3,8,rooms,occur,0,1,7.132497551660044,When I was a kid I hated dining rooms because they were always so boring.,56,2,0.9753521126760564,dining,rooms,-0.11568325395582058,0.3117497,Ours,High,3.3893079715033156,0,NA,NA,NA
Plausible,41,4,party,manage,0,1,6.520621127558696,Kim heard about the party outfit that her mother had chosen.,57,2,0.9753521126760564,party,outfit,1.8498967460441795,1.54e-5,Staubs,Low,-6.526280420309378,1,NA,NA,NA
Plausible,41,5,outfit,miller,0,1,7.213031659834869,Kim heard about the party outfit that her mother had chosen.,57,2,0.9753521126760564,party,outfit,1.8498967460441795,1.54e-5,Staubs,Low,-6.526280420309378,0,NA,NA,NA
Implausible,38,4,kitchen,happens,0,1,6.933423025730715,The contractor ordered the kitchen fixtures after the renovation.,60,2,0.9753521126760564,kitchen,fixtures,-1.0196682539558202,1.37e-4,Staubs,Low,-4.340667003900837,1,NA,NA,NA
Implausible,38,5,fixtures,cinnamon,0,1,6.779921907472252,The contractor ordered the kitchen fixtures after the renovation.,60,2,0.9753521126760564,kitchen,fixtures,-1.0196682539558202,1.37e-4,Staubs,Low,-4.340667003900837,0,NA,NA,NA
Plausible,13,6,graduate,suppose,1,1,7.527793987721444,Sally said she found that new graduate school everyone was talking about.,63,2,0.9753521126760564,graduate,school,-0.06314625395582052,0.1368266,Ours,High,2.5658217799841996,1,NA,NA,NA
Plausible,13,7,school,honestly,0,1,6.501289670540389,Sally said she found that new graduate school everyone was talking about.,63,2,0.9753521126760564,graduate,school,-0.06314625395582052,0.1368266,Ours,High,2.5658217799841996,0,NA,NA,NA
Plausible,37,4,elevator,academia,0,1,6.684611727667927,The maid caught the elevator mechanic who was goofing off.,67,2,0.9753521126760564,elevator,mechanic,0.02380974604418018,1.99e-4,Staubs,Low,-3.9673431050044687,1,NA,NA,NA
Plausible,37,5,mechanic,diaspora,1,1,7.197435354096591,The maid caught the elevator mechanic who was goofing off.,67,2,0.9753521126760564,elevator,mechanic,0.02380974604418018,1.99e-4,Staubs,Low,-3.9673431050044687,0,NA,NA,NA
Plausible,29,5,cafeteria,derives,1,1,6.548219102762372,The new principal visited the cafeteria manager at the end of the school day.,72,2,0.9753521126760564,cafeteria,manager,2.1959837460441793,0.002809,Staubs,Low,-1.320064102624718,1,NA,NA,NA
Plausible,29,6,manager,coincide,0,1,7.203405521083095,The new principal visited the cafeteria manager at the end of the school day.,72,2,0.9753521126760564,cafeteria,manager,2.1959837460441793,0.002809,Staubs,Low,-1.320064102624718,0,NA,NA,NA
Plausible,5,6,insider,utilize,1,1,7.438971592395862,I read an article about the insider trading that cost one company millions of dollars.,75,2,0.9753521126760564,insider,trading,0.7559837460441798,0.2203773,Ours,High,3.0424484266722773,1,NA,NA,NA
Plausible,5,7,trading,mammals,1,1,7.333676395657684,I read an article about the insider trading that cost one company millions of dollars.,75,2,0.9753521126760564,insider,trading,0.7559837460441798,0.2203773,Ours,High,3.0424484266722773,0,NA,NA,NA
Plausible,33,4,cabinet,suppose,0,1,7.163946684342547,The dealer polished the cabinet drawers before making the sale.,79,2,0.9753521126760564,cabinet,drawers,0.11076674604418013,7.71e-4,Staubs,Low,-2.612959556165632,1,NA,NA,NA
Plausible,33,5,drawers,forties,0,1,7.9976631270201,The dealer polished the cabinet drawers before making the sale.,79,2,0.9753521126760564,cabinet,drawers,0.11076674604418013,7.71e-4,Staubs,Low,-2.612959556165632,0,NA,NA,NA
Plausible,35,7,problem,follows,0,1,6.625392368007956,The teacher was unable to understand the problem child in her class.,84,2,0.9753521126760564,problem,child,1.95598374604418,3.68e-4,Staubs,Low,-3.3525649915600306,1,NA,NA,NA
Plausible,35,8,child,yours,1,1,7.4673710669175595,The teacher was unable to understand the problem child in her class.,84,2,0.9753521126760564,problem,child,1.95598374604418,3.68e-4,Staubs,Low,-3.3525649915600306,0,NA,NA,NA
Implausible,32,3,service,oh,0,1,6.456769655572163,Gordon calculated the service charges at the local mortgage company.,89,2,0.9753521126760564,service,charges,0.1559837460441802,0.001149,Staubs,Low,-2.2140006518802053,1,NA,NA,NA
Implausible,32,4,charges,sir,0,1,6.917705609835305,Gordon calculated the service charges at the local mortgage company.,89,2,0.9753521126760564,service,charges,0.1559837460441802,0.001149,Staubs,Low,-2.2140006518802053,0,NA,NA,NA
Plausible,11,9,wastewater,implicitly,1,1,7.224753405767971,I was really worried after I read about the wastewater treatment because it wasn't adequately tested.,98,2,0.9753521126760564,wastewater,treatment,0.7593167460441794,0.1460549,Ours,High,2.6310899276781887,1,NA,NA,NA
Plausible,11,10,treatment,republic,0,1,6.690842277418564,I was really worried after I read about the wastewater treatment because it wasn't adequately tested.,98,2,0.9753521126760564,wastewater,treatment,0.7593167460441794,0.1460549,Ours,High,2.6310899276781887,0,NA,NA,NA
Implausible,4,4,peanut,housed,1,1,8.290794347381356,Jimmy spread out the peanut butter after he finished working.,101,2,0.9753521126760564,peanut,butter,-0.32401625395582023,0.2757128,Ours,High,3.2664670934812383,1,NA,NA,NA
Implausible,4,5,butter,tragic,1,1,6.669498089857879,Jimmy spread out the peanut butter after he finished working.,101,2,0.9753521126760564,peanut,butter,-0.32401625395582023,0.2757128,Ours,High,3.2664670934812383,0,NA,NA,NA
Plausible,19,15,toilet,fought,1,1,6.760414691083428,The worst part about using the bathroom in public is that they never flush the toilet paper no matter when you go.,104,2,0.9753521126760564,toilet,paper,1.9803317460441798,0.11059946,Ours,High,2.353022555870178,1,NA,NA,NA
Plausible,19,16,paper,yes,0,1,7.251344983372214,The worst part about using the bathroom in public is that they never flush the toilet paper no matter when you go.,104,2,0.9753521126760564,toilet,paper,1.9803317460441798,0.11059946,Ours,High,2.353022555870178,0,NA,NA,NA
Implausible,10,9,ice,fort,1,1,7.428333194190806,One of my favorite feelings is when I smell ice cream because it's so sweet.,105,2,0.9753521126760564,ice,cream,-1.2840162539558202,0.1511365,Ours,High,2.6652907512400463,1,NA,NA,NA
Implausible,10,10,cream,naval,1,1,6.478509642208569,One of my favorite feelings is when I smell ice cream because it's so sweet.,105,2,0.9753521126760564,ice,cream,-1.2840162539558202,0.1511365,Ours,High,2.6652907512400463,0,NA,NA,NA
Plausible,7,4,alcoholics,centimeter,1,1,7.01301578963963,The social worker visits alcoholics anonymous to help people.,110,2,0.9753521126760564,alcoholics,anonymous,1.5959837460441797,0.1876327,Ours,High,2.881593677671841,1,NA,NA,NA
Plausible,7,5,anonymous,telescope,1,1,7.167809184316444,The social worker visits alcoholics anonymous to help people.,110,2,0.9753521126760564,alcoholics,anonymous,1.5959837460441797,0.1876327,Ours,High,2.881593677671841,0,NA,NA,NA
Implausible,8,4,baking,victor,1,1,7.419979923661835,Timmy absolutely loves buying baking sheets with anyone who is willing.,111,2,0.9753521126760564,baking,sheets,-2.4490162539558202,0.1552467,Ours,High,2.6921228138022038,1,NA,NA,NA
Implausible,8,5,sheets,bailey,1,1,7.349230824613334,Timmy absolutely loves buying baking sheets with anyone who is willing.,111,2,0.9753521126760564,baking,sheets,-2.4490162539558202,0.1552467,Ours,High,2.6921228138022038,0,NA,NA,NA
Implausible,36,4,bathroom,declined,1,1,7.080867896690782,The visitors folded the bathroom towels on the first day of their stay.,112,2,0.9753521126760564,bathroom,towels,-2.15010325395582,3.19e-4,Staubs,Low,-3.4954568269441175,1,NA,NA,NA
Implausible,36,5,towels,genera,0,1,6.429719478039138,The visitors folded the bathroom towels on the first day of their stay.,112,2,0.9753521126760564,bathroom,towels,-2.15010325395582,3.19e-4,Staubs,Low,-3.4954568269441175,0,NA,NA,NA
Plausible,39,3,ceiling,eat,1,1,7.186901020411631,Ricardo painted the ceiling supports while he ate his lunch.,116,2,0.9753521126760564,ceiling,supports,1.9803317460441798,8.08e-5,Staubs,Low,-4.868670964201911,1,NA,NA,NA
Plausible,39,4,supports,breathe,0,1,7.316548177182976,Ricardo painted the ceiling supports while he ate his lunch.,116,2,0.9753521126760564,ceiling,supports,1.9803317460441798,8.08e-5,Staubs,Low,-4.868670964201911,0,NA,NA,NA
Plausible,23,6,license,reveals,1,1,6.878326468291325,The new taxi driver needed the license plate for the cab he just bought.,117,2,0.9753521126760564,license,plate,0.6759837460441798,0.0324,Staubs,Low,1.1252657720514594,1,NA,NA,NA
Plausible,23,7,plate,proud,0,1,6.84587987526405,The new taxi driver needed the license plate for the cab he just bought.,117,2,0.9753521126760564,license,plate,0.6759837460441798,0.0324,Staubs,Low,1.1252657720514594,0,NA,NA,NA
Implausible,30,3,safety,expect,1,1,6.728628613084702,Mary bought the safety belt because it was a big improvement.,124,2,0.9753521126760564,safety,belt,-1.2805382539558203,0.002332,Staubs,Low,-1.506166382258579,1,NA,NA,NA
Implausible,30,4,belt,ben,0,1,6.687108607866515,Mary bought the safety belt because it was a big improvement.,124,2,0.9753521126760564,safety,belt,-1.2805382539558203,0.002332,Staubs,Low,-1.506166382258579,0,NA,NA,NA
Plausible,21,10,junk,nova,1,1,6.580639137284949,Evan said that he shouldn't have thrown out all his junk food since now he feels bad.,126,2,0.9753521126760564,junk,food,1.9368537460441795,0.105548352,Ours,High,2.306276509972274,1,NA,NA,NA
Plausible,21,11,food,hear,1,1,7.053585727193677,Evan said that he shouldn't have thrown out all his junk food since now he feels bad.,126,2,0.9753521126760564,junk,food,1.9368537460441795,0.105548352,Ours,High,2.306276509972274,0,NA,NA,NA
Implausible,34,7,weight,except,0,1,7.43955930913332,"It was a great event, but the weight lifter finally won the competition.",129,2,0.9753521126760564,weight,lifter,-2.2823492539558203,7.38e-4,Staubs,Low,-2.6567041051284885,1,NA,NA,NA
Implausible,34,8,lifter,solute,0,1,7.288927694521257,"It was a great event, but the weight lifter finally won the competition.",129,2,0.9753521126760564,weight,lifter,-2.2823492539558203,7.38e-4,Staubs,Low,-2.6567041051284885,0,NA,NA,NA
Implausible,17,6,web,etc,1,1,7.23561914106675,I heard that Billy read a web site about dogs.,6,3,0.8693379790940766,web,site,-2.01966825395582,0.1143555,Ours,High,2.3864193665102027,1,NA,NA,NA
Implausible,17,7,site,anti,1,1,6.9985096422506015,I heard that Billy read a web site about dogs.,6,3,0.8693379790940766,web,site,-2.01966825395582,0.1143555,Ours,High,2.3864193665102027,0,NA,NA,NA
Plausible,8,5,baking,bailey,1,1,7.343426229147367,Timmy absolutely loves talking about baking sheets with anyone who is willing.,9,3,0.8693379790940766,baking,sheets,2.02380974604418,0.1552467,Ours,High,2.6921228138022038,1,NA,NA,NA
Plausible,8,6,sheets,define,0,1,7.1631723908466425,Timmy absolutely loves talking about baking sheets with anyone who is willing.,9,3,0.8693379790940766,baking,sheets,2.02380974604418,0.1552467,Ours,High,2.6921228138022038,0,NA,NA,NA
Plausible,40,4,elephant,minimize,1,1,6.755768921984255,The children loved the elephant shows that took place on Tuesday.,10,3,0.8693379790940766,elephant,shows,1.59265074604418,1.99e-5,Staubs,Low,-6.2699281979985155,1,NA,NA,NA
Plausible,40,5,shows,doubt,0,1,6.878326468291325,The children loved the elephant shows that took place on Tuesday.,10,3,0.8693379790940766,elephant,shows,1.59265074604418,1.99e-5,Staubs,Low,-6.2699281979985155,0,NA,NA,NA
Implausible,11,8,wastewater,swapped,1,0,7.602401335665818,I was really worried after I administered the wastewater treatment because it wasn't adequately tested.,16,3,0.8693379790940766,wastewater,treatment,-1.1066252539558201,0.1460549,Ours,High,2.6310899276781887,1,NA,NA,NA
Implausible,11,9,treatment,implicitly,0,1,6.890609120147166,I was really worried after I administered the wastewater treatment because it wasn't adequately tested.,16,3,0.8693379790940766,wastewater,treatment,-1.1066252539558201,0.1460549,Ours,High,2.6310899276781887,0,NA,NA,NA
Plausible,38,4,kitchen,happens,1,0,7.04141166379481,The contractor admired the kitchen fixtures after the renovation.,20,3,0.8693379790940766,kitchen,fixtures,1.71765074604418,1.37e-4,Staubs,Low,-4.340667003900837,1,NA,NA,NA
Plausible,38,5,fixtures,cinnamon,0,1,7.511524648390866,The contractor admired the kitchen fixtures after the renovation.,20,3,0.8693379790940766,kitchen,fixtures,1.71765074604418,1.37e-4,Staubs,Low,-4.340667003900837,0,NA,NA,NA
Plausible,6,4,dairy,fined,1,1,7.448333860897476,The manager found the dairy products in the tracking system.,28,3,0.8693379790940766,dairy,products,0.9368537460441795,0.1916258,Ours,High,2.9026518612570524,1,NA,NA,NA
Plausible,6,5,products,feedback,1,1,7.282761179605593,The manager found the dairy products in the tracking system.,28,3,0.8693379790940766,dairy,products,0.9368537460441795,0.1916258,Ours,High,2.9026518612570524,0,NA,NA,NA
Implausible,13,7,graduate,honestly,1,1,6.704414354964107,Sally said she is attending that new graduate school everyone was talking about.,29,3,0.8693379790940766,graduate,school,-1.4906832539558201,0.1368266,Ours,High,2.5658217799841996,1,NA,NA,NA
Implausible,13,8,school,forget,0,1,6.70196036600254,Sally said she is attending that new graduate school everyone was talking about.,29,3,0.8693379790940766,graduate,school,-1.4906832539558201,0.1368266,Ours,High,2.5658217799841996,0,NA,NA,NA
Implausible,25,5,station,suppose,0,1,7.091742115095153,Barbara went over in her station wagon and put some money in the parking meter.,30,3,0.8693379790940766,station,wagon,-0.8892332539558203,0.015707,Staubs,Low,0.4012138221140704,1,NA,NA,NA
Implausible,25,6,wagon,creep,0,1,6.802394763324311,Barbara went over in her station wagon and put some money in the parking meter.,30,3,0.8693379790940766,station,wagon,-0.8892332539558203,0.015707,Staubs,Low,0.4012138221140704,0,NA,NA,NA
Plausible,32,5,service,anymore,1,1,6.8690144506657065,Gordon was annoyed by the service charges at the local mortgage company.,38,3,0.8693379790940766,service,charges,1.7629407460441797,0.001149,Staubs,Low,-2.2140006518802053,1,NA,NA,NA
Plausible,32,6,charges,glad,1,1,7.106606137727303,Gordon was annoyed by the service charges at the local mortgage company.,38,3,0.8693379790940766,service,charges,1.7629407460441797,0.001149,Staubs,Low,-2.2140006518802053,0,NA,NA,NA
Implausible,5,7,insider,mammals,1,1,7.411556287811163,I read that John was arrested for insider trading that cost one company millions of dollars.,40,3,0.8693379790940766,insider,trading,-1.15010325395582,0.2203773,Ours,High,3.0424484266722773,1,NA,NA,NA
Implausible,5,8,trading,cute,1,1,6.79794041297493,I read that John was arrested for insider trading that cost one company millions of dollars.,40,3,0.8693379790940766,insider,trading,-1.15010325395582,0.2203773,Ours,High,3.0424484266722773,0,NA,NA,NA
Implausible,27,5,traffic,yeah,1,1,6.703188113240863,Nora was slowed at the traffic light near the new mall.,43,3,0.8693379790940766,traffic,light,-0.9906832539558201,0.013149,Staubs,Low,0.2234530593579569,1,NA,NA,NA
Implausible,27,6,light,happens,0,1,6.98100574072173,Nora was slowed at the traffic light near the new mall.,43,3,0.8693379790940766,traffic,light,-0.9906832539558201,0.013149,Staubs,Low,0.2234530593579569,0,NA,NA,NA
Implausible,39,4,ceiling,breathe,0,0,7.739794458408701,Ricardo leaned against the ceiling supports while he ate his lunch.,45,3,0.8693379790940766,ceiling,supports,-1.3240162539558202,8.08e-5,Staubs,Low,-4.868670964201911,1,NA,NA,NA
Implausible,39,5,supports,gotten,1,1,7.213768308118642,Ricardo leaned against the ceiling supports while he ate his lunch.,45,3,0.8693379790940766,ceiling,supports,-1.3240162539558202,8.08e-5,Staubs,Low,-4.868670964201911,0,NA,NA,NA
Plausible,10,9,ice,fort,0,1,6.71901315438526,One of my favorite feelings is when I eat ice cream because it's so sweet.,47,3,0.8693379790940766,ice,cream,0.2846797460441799,0.1511365,Ours,High,2.6652907512400463,1,NA,NA,NA
Plausible,10,10,cream,naval,1,1,6.558197802812269,One of my favorite feelings is when I eat ice cream because it's so sweet.,47,3,0.8693379790940766,ice,cream,0.2846797460441799,0.1511365,Ours,High,2.6652907512400463,0,NA,NA,NA
Implausible,21,9,junk,der,0,1,7.003065458786462,Evan said that he shouldn't have eaten all his junk food since now he feels bad.,51,3,0.8693379790940766,junk,food,-1.1990162539558202,0.105548352,Ours,High,2.306276509972274,1,NA,NA,NA
Implausible,21,10,food,nova,0,1,6.478509642208569,Evan said that he shouldn't have eaten all his junk food since now he feels bad.,51,3,0.8693379790940766,junk,food,-1.1990162539558202,0.105548352,Ours,High,2.306276509972274,0,NA,NA,NA
Plausible,4,4,peanut,housed,0,0,6.38856140554563,Jimmy picked up the peanut butter after he finished working.,53,3,0.8693379790940766,peanut,butter,1.41511374604418,0.2757128,Ours,High,3.2664670934812383,1,NA,NA,NA
Plausible,4,5,butter,tragic,0,1,6.336825731146441,Jimmy picked up the peanut butter after he finished working.,53,3,0.8693379790940766,peanut,butter,1.41511374604418,0.2757128,Ours,High,3.2664670934812383,0,NA,NA,NA
Implausible,9,3,baking,bailey,0,1,7.134093721192866,My mom received baking dishes from the new grocery store.,55,3,0.8693379790940766,baking,dishes,-1.80227725395582,0.1538439,Ours,High,2.6830458012264087,1,NA,NA,NA
Implausible,9,4,dishes,quoted,1,1,6.84587987526405,My mom received baking dishes from the new grocery store.,55,3,0.8693379790940766,baking,dishes,-1.80227725395582,0.1538439,Ours,High,2.6830458012264087,0,NA,NA,NA
Implausible,7,4,alcoholics,centimeter,0,0,6.792344427470809,The social worker founded alcoholics anonymous to help people.,59,3,0.8693379790940766,alcoholics,anonymous,-1.8892332539558203,0.1876327,Ours,High,2.881593677671841,1,NA,NA,NA
Implausible,7,5,anonymous,telescope,0,1,7.001245622069476,The social worker founded alcoholics anonymous to help people.,59,3,0.8693379790940766,alcoholics,anonymous,-1.8892332539558203,0.1876327,Ours,High,2.881593677671841,0,NA,NA,NA
Plausible,22,7,concert,exist,1,1,7.140453043101158,Jane looked forward to going to the concert hall after it had been remodeled.,63,3,0.8693379790940766,concert,hall,1.5455487460441795,0.05123,Staubs,Low,1.5834326472042863,1,NA,NA,NA
Plausible,22,8,hall,worry,0,0,6.57507584059962,Jane looked forward to going to the concert hall after it had been remodeled.,63,3,0.8693379790940766,concert,hall,1.5455487460441795,0.05123,Staubs,Low,1.5834326472042863,0,NA,NA,NA
Plausible,34,7,weight,except,0,1,6.928537818164665,"It required a great effort, but the weight lifter finally won the competition.",74,3,0.8693379790940766,weight,lifter,-0.4544512539558201,7.38e-4,Staubs,Low,-2.6567041051284885,1,NA,NA,NA
Plausible,34,8,lifter,solute,1,0,7.177782416195197,"It required a great effort, but the weight lifter finally won the competition.",74,3,0.8693379790940766,weight,lifter,-0.4544512539558201,7.38e-4,Staubs,Low,-2.6567041051284885,0,NA,NA,NA
Implausible,3,10,dining,treaty,1,1,6.618738983517219,When I was a kid I hated the color of dining rooms because they were always so boring.,81,3,0.8693379790940766,dining,rooms,-2.3240162539558202,0.3117497,Ours,High,3.3893079715033156,1,NA,NA,NA
Implausible,3,11,rooms,aware,0,1,7.160845906664299,When I was a kid I hated the color of dining rooms because they were always so boring.,81,3,0.8693379790940766,dining,rooms,-2.3240162539558202,0.3117497,Ours,High,3.3893079715033156,0,NA,NA,NA
Implausible,1,9,steering,appealed,0,1,6.75110146893676,The hardest part about painting my car is the steering wheel is oddly shaped.,83,3,0.8693379790940766,steering,wheel,-2.10662525395582,0.5464651,Ours,High,3.950577793897361,1,NA,NA,NA
Implausible,1,10,wheel,cares,1,1,6.792344427470809,The hardest part about painting my car is the steering wheel is oddly shaped.,83,3,0.8693379790940766,steering,wheel,-2.10662525395582,0.5464651,Ours,High,3.950577793897361,0,NA,NA,NA
Implausible,35,7,problem,follows,0,1,6.437751649736401,The teacher was unable to scold the problem child in her class.,89,3,0.8693379790940766,problem,child,-1.7587992539558202,3.68e-4,Staubs,Low,-3.3525649915600306,1,NA,NA,NA
Implausible,35,8,child,yours,0,0,7.122866658599083,The teacher was unable to scold the problem child in her class.,89,3,0.8693379790940766,problem,child,-1.7587992539558202,3.68e-4,Staubs,Low,-3.3525649915600306,0,NA,NA,NA
Implausible,41,3,party,sir,1,1,7.110696122978827,Kim modeled the party outfit that her mother had chosen.,90,3,0.8693379790940766,party,outfit,-1.12401625395582,1.54e-5,Staubs,Low,-6.526280420309378,1,NA,NA,NA
Implausible,41,4,outfit,manage,0,1,6.82001636467413,Kim modeled the party outfit that her mother had chosen.,90,3,0.8693379790940766,party,outfit,-1.12401625395582,1.54e-5,Staubs,Low,-6.526280420309378,0,NA,NA,NA
Plausible,12,12,lung,troy,1,1,6.70808408385307,"Due to her difficulty of breathing, Jamie was really worried about her lung cancer because it is hard to treat.",95,3,0.8693379790940766,lung,cancer,1.41511374604418,0.1379383,Ours,High,2.57391383298145,1,NA,NA,NA
Plausible,12,13,cancer,wonder,1,1,6.413458957167357,"Due to her difficulty of breathing, Jamie was really worried about her lung cancer because it is hard to treat.",95,3,0.8693379790940766,lung,cancer,1.41511374604418,0.1379383,Ours,High,2.57391383298145,0,NA,NA,NA
Implausible,29,6,cafeteria,coincide,1,0,6.977281341630747,The new principal talked to the cafeteria manager at the end of the school day.,100,3,0.8693379790940766,cafeteria,manager,-1.15010325395582,0.002809,Staubs,Low,-1.320064102624718,1,NA,NA,NA
Implausible,29,7,manager,yours,0,0,6.964135612418245,The new principal talked to the cafeteria manager at the end of the school day.,100,3,0.8693379790940766,cafeteria,manager,-1.15010325395582,0.002809,Staubs,Low,-1.320064102624718,0,NA,NA,NA
Plausible,28,4,package,bye,1,1,7.001245622069476,Jane carefully examined the package deal to make sure it was a bargain.,106,3,0.8693379790940766,package,deal,2.21765074604418,0.006036,Staubs,Low,-0.5551511098412218,1,NA,NA,NA
Plausible,28,5,deal,prefer,1,0,6.628041376179533,Jane carefully examined the package deal to make sure it was a bargain.,106,3,0.8693379790940766,package,deal,2.21765074604418,0.006036,Staubs,Low,-0.5551511098412218,0,NA,NA,NA
Implausible,23,6,license,reveals,0,0,7.790282380703483,The new taxi driver installed the license plate for the cab he just bought.,110,3,0.8693379790940766,license,plate,-0.7240162539558201,0.0324,Staubs,Low,1.1252657720514594,1,NA,NA,NA
Implausible,23,7,plate,proud,1,0,6.9957661563048505,The new taxi driver installed the license plate for the cab he just bought.,110,3,0.8693379790940766,license,plate,-0.7240162539558201,0.0324,Staubs,Low,1.1252657720514594,0,NA,NA,NA
Plausible,2,12,locker,sang,0,1,6.720220155135295,Kimmy panicked when she realized that she left the books in the locker room after gym class.,115,3,0.8693379790940766,locker,room,1.80641874604418,0.5015731,Ours,High,3.8648567087446786,1,NA,NA,NA
Plausible,2,13,room,smoked,0,1,6.424869023905388,Kimmy panicked when she realized that she left the books in the locker room after gym class.,115,3,0.8693379790940766,locker,room,1.80641874604418,0.5015731,Ours,High,3.8648567087446786,0,NA,NA,NA
Implausible,37,4,elevator,academia,0,0,7.146772179452637,The maid scolded the elevator mechanic who was goofing off.,118,3,0.8693379790940766,elevator,mechanic,-2.1990162539558202,1.99e-4,Staubs,Low,-3.9673431050044687,1,NA,NA,NA
Implausible,37,5,mechanic,diaspora,1,1,6.855408798609928,The maid scolded the elevator mechanic who was goofing off.,118,3,0.8693379790940766,elevator,mechanic,-2.1990162539558202,1.99e-4,Staubs,Low,-3.9673431050044687,0,NA,NA,NA
Plausible,42,5,surface,anybody,1,0,7.00397413672268,The astronaut landed on the surface crater that had been rumored to exist.,121,3,0.8693379790940766,surface,crater,0.95598374604418,2.86e-6,Staubs,Low,-8.2098263048972,1,NA,NA,NA
Plausible,42,6,crater,redeem,1,1,6.8658910748834385,The astronaut landed on the surface crater that had been rumored to exist.,121,3,0.8693379790940766,surface,crater,0.95598374604418,2.86e-6,Staubs,Low,-8.2098263048972,0,NA,NA,NA
Plausible,26,3,garbage,nowhere,1,1,7.190676034332207,Cindy smelled the garbage truck as it drove by her house.,122,3,0.8693379790940766,garbage,truck,1.80641874604418,0.015322,Staubs,Low,0.37639705334780515,1,NA,NA,NA
Plausible,26,4,truck,roman,0,0,6.824373670043086,Cindy smelled the garbage truck as it drove by her house.,122,3,0.8693379790940766,garbage,truck,1.80641874604418,0.015322,Staubs,Low,0.37639705334780515,0,NA,NA,NA
Plausible,36,4,bathroom,declined,0,1,6.586171654854675,The visitors dirtied the bathroom towels on the first day of their stay.,125,3,0.8693379790940766,bathroom,towels,1.34265074604418,3.19e-4,Staubs,Low,-3.4954568269441175,1,NA,NA,NA
Plausible,36,5,towels,genera,1,1,6.634633357861686,The visitors dirtied the bathroom towels on the first day of their stay.,125,3,0.8693379790940766,bathroom,towels,1.34265074604418,3.19e-4,Staubs,Low,-3.4954568269441175,0,NA,NA,NA
Plausible,24,4,funeral,yeah,1,1,6.639875833826536,Sam went to the funeral home so that they would send a limousine.,129,3,0.8693379790940766,funeral,home,2.19772274604418,0.02871,Staubs,Low,1.004352843386148,1,NA,NA,NA
Plausible,24,5,home,rise,1,0,6.633318433280377,Sam went to the funeral home so that they would send a limousine.,129,3,0.8693379790940766,funeral,home,2.19772274604418,0.02871,Staubs,Low,1.004352843386148,0,NA,NA,NA
Implausible,31,3,season,anyone,1,1,6.752270376141742,Arnie bought the season tickets though they cost more than last year.,130,3,0.8693379790940766,season,tickets,-1.16401625395582,0.002293,Staubs,Low,-1.5230316468710567,1,NA,NA,NA
Implausible,31,4,tickets,applies,1,1,6.507277712385012,Arnie bought the season tickets though they cost more than last year.,130,3,0.8693379790940766,season,tickets,-1.16401625395582,0.002293,Staubs,Low,-1.5230316468710567,0,NA,NA,NA
Plausible,20,8,prescription,encouraged,0,1,6.7650389767805414,The doctor told me to pick up my prescription drugs in order to prevent any further damage to my skin.,131,3,0.8693379790940766,prescription,drugs,1.9803317460441798,0.1027533,Ours,High,2.2794383189021077,1,NA,NA,NA
Plausible,20,9,drugs,pre,1,0,6.755768921984255,The doctor told me to pick up my prescription drugs in order to prevent any further damage to my skin.,131,3,0.8693379790940766,prescription,drugs,1.9803317460441798,0.1027533,Ours,High,2.2794383189021077,0,NA,NA,NA
Plausible,30,5,safety,anyone,0,0,6.478509642208569,Mary was reassured about the safety belt because it was a big improvement.,136,3,0.8693379790940766,safety,belt,0.2176507460441801,0.002332,Staubs,Low,-1.506166382258579,1,NA,NA,NA
Plausible,30,6,belt,sees,0,0,6.981934677156389,Mary was reassured about the safety belt because it was a big improvement.,136,3,0.8693379790940766,safety,belt,0.2176507460441801,0.002332,Staubs,Low,-1.506166382258579,0,NA,NA,NA
Implausible,19,17,toilet,reply,1,1,6.440946540632921,The worst part about using the bathroom in public is that they always run out of the toilet paper no matter when you go.,138,3,0.8693379790940766,toilet,paper,-0.9240162539558203,0.11059946,Ours,High,2.353022555870178,1,NA,NA,NA
Implausible,19,18,paper,ended,0,0,6.410174881966167,The worst part about using the bathroom in public is that they always run out of the toilet paper no matter when you go.,138,3,0.8693379790940766,toilet,paper,-0.9240162539558203,0.11059946,Ours,High,2.353022555870178,0,NA,NA,NA
Implausible,33,4,cabinet,suppose,1,1,7.1284959456800365,The dealer counted the cabinet drawers before making the sale.,139,3,0.8693379790940766,cabinet,drawers,-1.12401625395582,7.71e-4,Staubs,Low,-2.612959556165632,1,NA,NA,NA
Implausible,33,5,drawers,forties,1,1,6.967909201801884,The dealer counted the cabinet drawers before making the sale.,139,3,0.8693379790940766,cabinet,drawers,-1.12401625395582,7.71e-4,Staubs,Low,-2.612959556165632,0,NA,NA,NA
Plausible,39,3,ceiling,eat,1,1,6.694562058521095,Ricardo painted the ceiling supports while he ate his lunch.,4,4,0.9559859154929577,ceiling,supports,1.9803317460441798,8.08e-5,Staubs,Low,-4.868670964201911,1,NA,NA,NA
Plausible,13,6,graduate,suppose,0,1,7.170119543449628,Sally said she found that new graduate school everyone was talking about.,5,4,0.9559859154929577,graduate,school,-0.06314625395582052,0.1368266,Ours,High,2.5658217799841996,1,NA,NA,NA
Plausible,13,7,school,honestly,0,1,7.351799869057777,Sally said she found that new graduate school everyone was talking about.,5,4,0.9559859154929577,graduate,school,-0.06314625395582052,0.1368266,Ours,High,2.5658217799841996,0,NA,NA,NA
Implausible,22,6,concert,scored,1,1,7.199678345691172,Jane looked forward to visiting the concert hall after it had been remodeled.,6,4,0.9559859154929577,concert,hall,-0.32401625395582023,0.05123,Staubs,Low,1.5834326472042863,1,NA,NA,NA
Implausible,22,7,hall,exist,1,1,7.057036981697891,Jane looked forward to visiting the concert hall after it had been remodeled.,6,4,0.9559859154929577,concert,hall,-0.32401625395582023,0.05123,Staubs,Low,1.5834326472042863,0,NA,NA,NA
Implausible,24,3,funeral,cent,0,1,6.62273632394984,Sam phoned the funeral home so that they would send a limousine.,8,4,0.9559859154929577,funeral,home,-1.1990162539558202,0.02871,Staubs,Low,1.004352843386148,1,NA,NA,NA
Implausible,24,4,home,yeah,1,1,6.214608098422191,Sam phoned the funeral home so that they would send a limousine.,8,4,0.9559859154929577,funeral,home,-1.1990162539558202,0.02871,Staubs,Low,1.004352843386148,0,NA,NA,NA
Implausible,38,4,kitchen,happens,1,1,7.037027614686276,The contractor ordered the kitchen fixtures after the renovation.,14,4,0.9559859154929577,kitchen,fixtures,-1.0196682539558202,1.37e-4,Staubs,Low,-4.340667003900837,1,NA,NA,NA
Implausible,38,5,fixtures,cinnamon,1,1,7.01571242048723,The contractor ordered the kitchen fixtures after the renovation.,14,4,0.9559859154929577,kitchen,fixtures,-1.0196682539558202,1.37e-4,Staubs,Low,-4.340667003900837,0,NA,NA,NA
Plausible,37,4,elevator,academia,0,1,7.390798521735676,The maid caught the elevator mechanic who was goofing off.,21,4,0.9559859154929577,elevator,mechanic,0.02380974604418018,1.99e-4,Staubs,Low,-3.9673431050044687,1,NA,NA,NA
Plausible,37,5,mechanic,diaspora,1,1,7.069874128458572,The maid caught the elevator mechanic who was goofing off.,21,4,0.9559859154929577,elevator,mechanic,0.02380974604418018,1.99e-4,Staubs,Low,-3.9673431050044687,0,NA,NA,NA
Implausible,12,12,lung,troy,1,1,6.595780513961311,"Due to her difficulty of breathing, Jamie was really worried about having lung cancer because it is hard to treat.",27,4,0.9559859154929577,lung,cancer,-1.0040162539558204,0.1379383,Ours,High,2.57391383298145,1,NA,NA,NA
Implausible,12,13,cancer,wonder,1,1,6.306275286948016,"Due to her difficulty of breathing, Jamie was really worried about having lung cancer because it is hard to treat.",27,4,0.9559859154929577,lung,cancer,-1.0040162539558204,0.1379383,Ours,High,2.57391383298145,0,NA,NA,NA
Implausible,40,4,elephant,minimize,1,1,7.515344571180436,The children attended the elephant shows that took place on Tuesday.,36,4,0.9559859154929577,elephant,shows,-1.4979292539558204,1.99e-5,Staubs,Low,-6.2699281979985155,1,NA,NA,NA
Implausible,40,5,shows,doubt,0,1,6.551080335043404,The children attended the elephant shows that took place on Tuesday.,36,4,0.9559859154929577,elephant,shows,-1.4979292539558204,1.99e-5,Staubs,Low,-6.2699281979985155,0,NA,NA,NA
Plausible,25,5,station,suppose,1,1,7.095893221097532,Barbara went over to her station wagon and put some money in the parking meter.,39,4,0.9559859154929577,station,wagon,1.4259837460441798,0.015707,Staubs,Low,0.4012138221140704,1,NA,NA,NA
Plausible,25,6,wagon,creep,1,1,6.385194398997726,Barbara went over to her station wagon and put some money in the parking meter.,39,4,0.9559859154929577,station,wagon,1.4259837460441798,0.015707,Staubs,Low,0.4012138221140704,0,NA,NA,NA
Implausible,10,9,ice,fort,1,1,6.703188113240863,One of my favorite feelings is when I smell ice cream because it's so sweet.,40,4,0.9559859154929577,ice,cream,-1.2840162539558202,0.1511365,Ours,High,2.6652907512400463,1,NA,NA,NA
Implausible,10,10,cream,naval,1,1,6.519147287940395,One of my favorite feelings is when I smell ice cream because it's so sweet.,40,4,0.9559859154929577,ice,cream,-1.2840162539558202,0.1511365,Ours,High,2.6652907512400463,0,NA,NA,NA
Plausible,19,15,toilet,fought,0,1,6.42648845745769,The worst part about using the bathroom in public is that they never flush the toilet paper no matter when you go.,41,4,0.9559859154929577,toilet,paper,1.9803317460441798,0.11059946,Ours,High,2.353022555870178,1,NA,NA,NA
Plausible,19,16,paper,yes,1,1,7.183111701743281,The worst part about using the bathroom in public is that they never flush the toilet paper no matter when you go.,41,4,0.9559859154929577,toilet,paper,1.9803317460441798,0.11059946,Ours,High,2.353022555870178,0,NA,NA,NA
Plausible,1,9,steering,appealed,0,1,7.537430036586509,The hardest part about driving my car is the steering wheel is oddly shaped.,42,4,0.9559859154929577,steering,wheel,1.4259837460441798,0.5464651,Ours,High,3.950577793897361,1,NA,NA,NA
Plausible,1,10,wheel,cares,0,1,6.29156913955832,The hardest part about driving my car is the steering wheel is oddly shaped.,42,4,0.9559859154929577,steering,wheel,1.4259837460441798,0.5464651,Ours,High,3.950577793897361,0,NA,NA,NA
Implausible,36,4,bathroom,declined,1,1,6.683360945766275,The visitors folded the bathroom towels on the first day of their stay.,43,4,0.9559859154929577,bathroom,towels,-2.15010325395582,3.19e-4,Staubs,Low,-3.4954568269441175,1,NA,NA,NA
Implausible,36,5,towels,genera,0,1,6.513230110912307,The visitors folded the bathroom towels on the first day of their stay.,43,4,0.9559859154929577,bathroom,towels,-2.15010325395582,3.19e-4,Staubs,Low,-3.4954568269441175,0,NA,NA,NA
Implausible,32,3,service,oh,0,1,6.9650803456014065,Gordon calculated the service charges at the local mortgage company.,45,4,0.9559859154929577,service,charges,0.1559837460441802,0.001149,Staubs,Low,-2.2140006518802053,1,NA,NA,NA
Implausible,32,4,charges,sir,1,1,6.887552571664617,Gordon calculated the service charges at the local mortgage company.,45,4,0.9559859154929577,service,charges,0.1559837460441802,0.001149,Staubs,Low,-2.2140006518802053,0,NA,NA,NA
Implausible,42,5,surface,anybody,1,1,7.781138509845015,The astronaut dropped into the surface crater that had been rumored to exist.,48,4,0.9559859154929577,surface,crater,-0.8457552539558204,2.86e-6,Staubs,Low,-8.2098263048972,1,NA,NA,NA
Implausible,42,6,crater,redeem,0,1,6.565264970035361,The astronaut dropped into the surface crater that had been rumored to exist.,48,4,0.9559859154929577,surface,crater,-0.8457552539558204,2.86e-6,Staubs,Low,-8.2098263048972,0,NA,NA,NA
Implausible,6,4,dairy,fined,1,1,6.7650389767805414,The manager logged the dairy products in the tracking system.,49,4,0.9559859154929577,dairy,products,-0.8656832539558201,0.1916258,Ours,High,2.9026518612570524,1,NA,NA,NA
Implausible,6,5,products,feedback,0,1,6.4692503167957724,The manager logged the dairy products in the tracking system.,49,4,0.9559859154929577,dairy,products,-0.8656832539558201,0.1916258,Ours,High,2.9026518612570524,0,NA,NA,NA
Implausible,30,3,safety,expect,0,1,6.62273632394984,Mary bought the safety belt because it was a big improvement.,52,4,0.9559859154929577,safety,belt,-1.2805382539558203,0.002332,Staubs,Low,-1.506166382258579,1,NA,NA,NA
Implausible,30,4,belt,ben,0,1,6.684611727667927,Mary bought the safety belt because it was a big improvement.,52,4,0.9559859154929577,safety,belt,-1.2805382539558203,0.002332,Staubs,Low,-1.506166382258579,0,NA,NA,NA
Implausible,26,3,garbage,nowhere,0,1,6.912742820493176,Cindy heard the garbage truck as it drove by her house.,62,4,0.9559859154929577,garbage,truck,-0.32401625395582023,0.015322,Staubs,Low,0.37639705334780515,1,NA,NA,NA
Implausible,26,4,truck,roman,0,1,6.3578422665081,Cindy heard the garbage truck as it drove by her house.,62,4,0.9559859154929577,garbage,truck,-0.32401625395582023,0.015322,Staubs,Low,0.37639705334780515,0,NA,NA,NA
Plausible,11,9,wastewater,implicitly,1,1,7.123672785204607,I was really worried after I read about the wastewater treatment because it wasn't adequately tested.,63,4,0.9559859154929577,wastewater,treatment,0.7593167460441794,0.1460549,Ours,High,2.6310899276781887,1,NA,NA,NA
Plausible,11,10,treatment,republic,0,1,6.71295620067707,I was really worried after I read about the wastewater treatment because it wasn't adequately tested.,63,4,0.9559859154929577,wastewater,treatment,0.7593167460441794,0.1460549,Ours,High,2.6310899276781887,0,NA,NA,NA
Plausible,23,6,license,reveals,0,1,6.226536669287466,The new taxi driver needed the license plate for the cab he just bought.,66,4,0.9559859154929577,license,plate,0.6759837460441798,0.0324,Staubs,Low,1.1252657720514594,1,NA,NA,NA
Plausible,23,7,plate,proud,1,1,6.71174039505618,The new taxi driver needed the license plate for the cab he just bought.,66,4,0.9559859154929577,license,plate,0.6759837460441798,0.0324,Staubs,Low,1.1252657720514594,0,NA,NA,NA
Plausible,41,4,party,manage,1,1,7.1592919047975645,Kim heard about the party outfit that her mother had chosen.,67,4,0.9559859154929577,party,outfit,1.8498967460441795,1.54e-5,Staubs,Low,-6.526280420309378,1,NA,NA,NA
Plausible,41,5,outfit,miller,0,1,7.868636894184167,Kim heard about the party outfit that her mother had chosen.,67,4,0.9559859154929577,party,outfit,1.8498967460441795,1.54e-5,Staubs,Low,-6.526280420309378,0,NA,NA,NA
Implausible,28,5,package,prefer,1,1,7.665753431861699,Jane listened carefully to the package deal to make sure it was a bargain.,70,4,0.9559859154929577,package,deal,-0.9327122539558204,0.006036,Staubs,Low,-0.5551511098412218,1,NA,NA,NA
Implausible,28,6,deal,fat,0,1,7.253470382684528,Jane listened carefully to the package deal to make sure it was a bargain.,70,4,0.9559859154929577,package,deal,-0.9327122539558204,0.006036,Staubs,Low,-0.5551511098412218,0,NA,NA,NA
Implausible,34,7,weight,except,1,1,7.426549072397305,"It was a great event, but the weight lifter finally won the competition.",80,4,0.9559859154929577,weight,lifter,-2.2823492539558203,7.38e-4,Staubs,Low,-2.6567041051284885,1,NA,NA,NA
Plausible,3,7,dining,lakes,0,1,7.201916317531627,When I was a kid I hated dining rooms because they were always so boring.,83,4,0.9559859154929577,dining,rooms,-0.11568325395582058,0.3117497,Ours,High,3.3893079715033156,1,NA,NA,NA
Plausible,3,8,rooms,occur,0,1,6.717804695023691,When I was a kid I hated dining rooms because they were always so boring.,83,4,0.9559859154929577,dining,rooms,-0.11568325395582058,0.3117497,Ours,High,3.3893079715033156,0,NA,NA,NA
Plausible,9,3,baking,bailey,0,1,7.307872780763706,My mom loves baking dishes from the new grocery store.,85,4,0.9559859154929577,baking,dishes,2.3843167460441794,0.1538439,Ours,High,2.6830458012264087,1,NA,NA,NA
Plausible,9,4,dishes,quoted,1,0,6.6052979209482015,My mom loves baking dishes from the new grocery store.,85,4,0.9559859154929577,baking,dishes,2.3843167460441794,0.1538439,Ours,High,2.6830458012264087,0,NA,NA,NA
Implausible,20,10,prescription,recipients,0,1,6.776506992372183,The doctor told me to stop my recreational use of prescription drugs in order to prevent any further damage to my skin.,91,4,0.9559859154929577,prescription,drugs,0.009316746044179425,0.1027533,Ours,High,2.2794383189021077,1,NA,NA,NA
Implausible,20,11,drugs,feels,0,1,6.2878585601617845,The doctor told me to stop my recreational use of prescription drugs in order to prevent any further damage to my skin.,91,4,0.9559859154929577,prescription,drugs,0.009316746044179425,0.1027533,Ours,High,2.2794383189021077,0,NA,NA,NA
Plausible,5,6,insider,utilize,1,1,6.734591659972948,I read an article about the insider trading that cost one company millions of dollars.,97,4,0.9559859154929577,insider,trading,0.7559837460441798,0.2203773,Ours,High,3.0424484266722773,1,NA,NA,NA
Plausible,5,7,trading,mammals,1,1,6.504288173536645,I read an article about the insider trading that cost one company millions of dollars.,97,4,0.9559859154929577,insider,trading,0.7559837460441798,0.2203773,Ours,High,3.0424484266722773,0,NA,NA,NA
Plausible,27,6,traffic,happens,1,1,6.637258031284457,Nora was held up by the traffic light near the new mall.,100,4,0.9559859154929577,traffic,light,1.9368537460441795,0.013149,Staubs,Low,0.2234530593579569,1,NA,NA,NA
Plausible,27,7,light,yours,1,1,6.942156705699469,Nora was held up by the traffic light near the new mall.,100,4,0.9559859154929577,traffic,light,1.9368537460441795,0.013149,Staubs,Low,0.2234530593579569,0,NA,NA,NA
Implausible,4,4,peanut,housed,1,0,6.398594934535208,Jimmy spread out the peanut butter after he finished working.,101,4,0.9559859154929577,peanut,butter,-0.32401625395582023,0.2757128,Ours,High,3.2664670934812383,1,NA,NA,NA
Implausible,4,5,butter,tragic,1,1,6.2766434893416445,Jimmy spread out the peanut butter after he finished working.,101,4,0.9559859154929577,peanut,butter,-0.32401625395582023,0.2757128,Ours,High,3.2664670934812383,0,NA,NA,NA
Implausible,8,4,baking,victor,1,0,6.8001700683022,Timmy absolutely loves buying baking sheets with anyone who is willing.,108,4,0.9559859154929577,baking,sheets,-2.4490162539558202,0.1552467,Ours,High,2.6921228138022038,1,NA,NA,NA
Implausible,8,5,sheets,bailey,1,1,6.983789965258135,Timmy absolutely loves buying baking sheets with anyone who is willing.,108,4,0.9559859154929577,baking,sheets,-2.4490162539558202,0.1552467,Ours,High,2.6921228138022038,0,NA,NA,NA
Plausible,29,5,cafeteria,derives,1,1,6.345636360828596,The new principal visited the cafeteria manager at the end of the school day.,110,4,0.9559859154929577,cafeteria,manager,2.1959837460441793,0.002809,Staubs,Low,-1.320064102624718,1,NA,NA,NA
Plausible,29,6,manager,coincide,1,1,7.395721608602045,The new principal visited the cafeteria manager at the end of the school day.,110,4,0.9559859154929577,cafeteria,manager,2.1959837460441793,0.002809,Staubs,Low,-1.320064102624718,0,NA,NA,NA
Plausible,33,4,cabinet,suppose,0,1,6.327936783729195,The dealer polished the cabinet drawers before making the sale.,124,4,0.9559859154929577,cabinet,drawers,0.11076674604418013,7.71e-4,Staubs,Low,-2.612959556165632,1,NA,NA,NA
Plausible,33,5,drawers,forties,0,1,6.966024187106113,The dealer polished the cabinet drawers before making the sale.,124,4,0.9559859154929577,cabinet,drawers,0.11076674604418013,7.71e-4,Staubs,Low,-2.612959556165632,0,NA,NA,NA
Implausible,2,13,locker,smoked,1,1,6.6895992691789665,Kimmy panicked when she realized that she left the faucet running in the locker room after gym class.,126,4,0.9559859154929577,locker,room,-1.4906832539558201,0.5015731,Ours,High,3.8648567087446786,1,NA,NA,NA
Implausible,2,14,room,stars,1,1,6.47543271670409,Kimmy panicked when she realized that she left the faucet running in the locker room after gym class.,126,4,0.9559859154929577,locker,room,-1.4906832539558201,0.5015731,Ours,High,3.8648567087446786,0,NA,NA,NA
Plausible,35,7,problem,follows,0,1,6.519147287940395,The teacher was unable to understand the problem child in her class.,128,4,0.9559859154929577,problem,child,1.95598374604418,3.68e-4,Staubs,Low,-3.3525649915600306,1,NA,NA,NA
Plausible,35,8,child,yours,0,0,7.201170883281678,The teacher was unable to understand the problem child in her class.,128,4,0.9559859154929577,problem,child,1.95598374604418,3.68e-4,Staubs,Low,-3.3525649915600306,0,NA,NA,NA
Plausible,31,3,season,anyone,1,1,7.170119543449628,Arnie enjoyed the season tickets though they cost more than last year.,131,4,0.9559859154929577,season,tickets,0.6759837460441798,0.002293,Staubs,Low,-1.5230316468710567,1,NA,NA,NA
Plausible,31,4,tickets,applies,1,1,6.706862336602747,Arnie enjoyed the season tickets though they cost more than last year.,131,4,0.9559859154929577,season,tickets,0.6759837460441798,0.002293,Staubs,Low,-1.5230316468710567,0,NA,NA,NA
Plausible,7,4,alcoholics,centimeter,1,1,6.931471805599453,The social worker visits alcoholics anonymous to help people.,134,4,0.9559859154929577,alcoholics,anonymous,1.5959837460441797,0.1876327,Ours,High,2.881593677671841,1,NA,NA,NA
Plausible,7,5,anonymous,telescope,1,0,6.366470447731438,The social worker visits alcoholics anonymous to help people.,134,4,0.9559859154929577,alcoholics,anonymous,1.5959837460441797,0.1876327,Ours,High,2.881593677671841,0,NA,NA,NA
Plausible,21,10,junk,nova,1,1,6.302618975744905,Evan said that he shouldn't have thrown out all his junk food since now he feels bad.,138,4,0.9559859154929577,junk,food,1.9368537460441795,0.105548352,Ours,High,2.306276509972274,1,NA,NA,NA
Plausible,21,11,food,hear,1,1,6.525029657843462,Evan said that he shouldn't have thrown out all his junk food since now he feels bad.,138,4,0.9559859154929577,junk,food,1.9368537460441795,0.105548352,Ours,High,2.306276509972274,0,NA,NA,NA
Plausible,17,7,web,anti,1,1,6.863803391452954,I heard that Billy stumbled upon a web site about dogs.,139,4,0.9559859154929577,web,site,0.4759837460441796,0.1143555,Ours,High,2.3864193665102027,1,NA,NA,NA
Plausible,17,8,site,worst,0,1,6.630683385642372,I heard that Billy stumbled upon a web site about dogs.,139,4,0.9559859154929577,web,site,0.4759837460441796,0.1143555,Ours,High,2.3864193665102027,0,NA,NA,NA
Implausible,13,7,graduate,honestly,1,1,6.4457198193855785,Sally said she is attending that new graduate school everyone was talking about.,8,5,0.9634146341463414,graduate,school,-1.4906832539558201,0.1368266,Ours,High,2.5658217799841996,1,NA,NA,NA
Implausible,13,8,school,forget,0,1,6.432940092739179,Sally said she is attending that new graduate school everyone was talking about.,8,5,0.9634146341463414,graduate,school,-1.4906832539558201,0.1368266,Ours,High,2.5658217799841996,0,NA,NA,NA
Plausible,24,4,funeral,yeah,1,1,6.486160788944089,Sam went to the funeral home so that they would send a limousine.,10,5,0.9634146341463414,funeral,home,2.19772274604418,0.02871,Staubs,Low,1.004352843386148,1,NA,NA,NA
Plausible,24,5,home,rise,1,1,6.871091294610546,Sam went to the funeral home so that they would send a limousine.,10,5,0.9634146341463414,funeral,home,2.19772274604418,0.02871,Staubs,Low,1.004352843386148,0,NA,NA,NA
Plausible,2,12,locker,sang,1,1,6.455198563340122,Kimmy panicked when she realized that she left the books in the locker room after gym class.,11,5,0.9634146341463414,locker,room,1.80641874604418,0.5015731,Ours,High,3.8648567087446786,1,NA,NA,NA
Plausible,2,13,room,smoked,1,1,6.331501849893691,Kimmy panicked when she realized that she left the books in the locker room after gym class.,11,5,0.9634146341463414,locker,room,1.80641874604418,0.5015731,Ours,High,3.8648567087446786,0,NA,NA,NA
Implausible,19,17,toilet,reply,0,1,6.573680166960646,The worst part about using the bathroom in public is that they always run out of the toilet paper no matter when you go.,12,5,0.9634146341463414,toilet,paper,-0.9240162539558203,0.11059946,Ours,High,2.353022555870178,1,NA,NA,NA
Implausible,19,18,paper,ended,0,1,6.175867270105761,The worst part about using the bathroom in public is that they always run out of the toilet paper no matter when you go.,12,5,0.9634146341463414,toilet,paper,-0.9240162539558203,0.11059946,Ours,High,2.353022555870178,0,NA,NA,NA
Plausible,4,4,peanut,housed,1,1,6.704414354964107,Jimmy picked up the peanut butter after he finished working.,13,5,0.9634146341463414,peanut,butter,1.41511374604418,0.2757128,Ours,High,3.2664670934812383,1,NA,NA,NA
Plausible,4,5,butter,tragic,0,1,6.7580945044277305,Jimmy picked up the peanut butter after he finished working.,13,5,0.9634146341463414,peanut,butter,1.41511374604418,0.2757128,Ours,High,3.2664670934812383,0,NA,NA,NA
Plausible,8,5,baking,bailey,1,1,6.6240652277998935,Timmy absolutely loves talking about baking sheets with anyone who is willing.,14,5,0.9634146341463414,baking,sheets,2.02380974604418,0.1552467,Ours,High,2.6921228138022038,1,NA,NA,NA
Plausible,8,6,sheets,define,1,1,7.119635638017636,Timmy absolutely loves talking about baking sheets with anyone who is willing.,14,5,0.9634146341463414,baking,sheets,2.02380974604418,0.1552467,Ours,High,2.6921228138022038,0,NA,NA,NA
Implausible,35,7,problem,follows,0,1,6.906754778648554,The teacher was unable to scold the problem child in her class.,18,5,0.9634146341463414,problem,child,-1.7587992539558202,3.68e-4,Staubs,Low,-3.3525649915600306,1,NA,NA,NA
Implausible,35,8,child,yours,1,1,6.523562306149512,The teacher was unable to scold the problem child in her class.,18,5,0.9634146341463414,problem,child,-1.7587992539558202,3.68e-4,Staubs,Low,-3.3525649915600306,0,NA,NA,NA
Implausible,3,10,dining,treaty,1,1,6.940222469119639,When I was a kid I hated the color of dining rooms because they were always so boring.,21,5,0.9634146341463414,dining,rooms,-2.3240162539558202,0.3117497,Ours,High,3.3893079715033156,1,NA,NA,NA
Implausible,3,11,rooms,aware,0,1,6.608000625296087,When I was a kid I hated the color of dining rooms because they were always so boring.,21,5,0.9634146341463414,dining,rooms,-2.3240162539558202,0.3117497,Ours,High,3.3893079715033156,0,NA,NA,NA
Plausible,28,4,package,bye,1,0,6.368187186350492,Jane carefully examined the package deal to make sure it was a bargain.,28,5,0.9634146341463414,package,deal,2.21765074604418,0.006036,Staubs,Low,-0.5551511098412218,1,NA,NA,NA
Plausible,28,5,deal,prefer,0,1,7.203405521083095,Jane carefully examined the package deal to make sure it was a bargain.,28,5,0.9634146341463414,package,deal,2.21765074604418,0.006036,Staubs,Low,-0.5551511098412218,0,NA,NA,NA
Implausible,9,3,baking,bailey,0,1,6.478509642208569,My mom received baking dishes from the new grocery store.,32,5,0.9634146341463414,baking,dishes,-1.80227725395582,0.1538439,Ours,High,2.6830458012264087,1,NA,NA,NA
Implausible,9,4,dishes,quoted,0,1,6.376726947898627,My mom received baking dishes from the new grocery store.,32,5,0.9634146341463414,baking,dishes,-1.80227725395582,0.1538439,Ours,High,2.6830458012264087,0,NA,NA,NA
Implausible,25,5,station,suppose,1,1,7.083387847625295,Barbara went over in her station wagon and put some money in the parking meter.,38,5,0.9634146341463414,station,wagon,-0.8892332539558203,0.015707,Staubs,Low,0.4012138221140704,1,NA,NA,NA
Implausible,25,6,wagon,creep,1,1,6.79346613258001,Barbara went over in her station wagon and put some money in the parking meter.,38,5,0.9634146341463414,station,wagon,-0.8892332539558203,0.015707,Staubs,Low,0.4012138221140704,0,NA,NA,NA
Implausible,31,3,season,anyone,1,1,7.284820912568604,Arnie bought the season tickets though they cost more than last year.,39,5,0.9634146341463414,season,tickets,-1.16401625395582,0.002293,Staubs,Low,-1.5230316468710567,1,NA,NA,NA
Implausible,31,4,tickets,applies,1,1,6.597145701886651,Arnie bought the season tickets though they cost more than last year.,39,5,0.9634146341463414,season,tickets,-1.16401625395582,0.002293,Staubs,Low,-1.5230316468710567,0,NA,NA,NA
Implausible,5,7,insider,mammals,1,1,7.415776975415394,I read that John was arrested for insider trading that cost one company millions of dollars.,42,5,0.9634146341463414,insider,trading,-1.15010325395582,0.2203773,Ours,High,3.0424484266722773,1,NA,NA,NA
Implausible,5,8,trading,cute,0,1,6.436150368369428,I read that John was arrested for insider trading that cost one company millions of dollars.,42,5,0.9634146341463414,insider,trading,-1.15010325395582,0.2203773,Ours,High,3.0424484266722773,0,NA,NA,NA
Plausible,34,7,weight,except,1,1,7.165493475060845,"It required a great effort, but the weight lifter finally won the competition.",46,5,0.9634146341463414,weight,lifter,-0.4544512539558201,7.38e-4,Staubs,Low,-2.6567041051284885,1,NA,NA,NA
Plausible,34,8,lifter,solute,1,1,6.926577033222725,"It required a great effort, but the weight lifter finally won the competition.",46,5,0.9634146341463414,weight,lifter,-0.4544512539558201,7.38e-4,Staubs,Low,-2.6567041051284885,0,NA,NA,NA
Implausible,1,9,steering,appealed,0,1,6.561030665896573,The hardest part about painting my car is the steering wheel is oddly shaped.,50,5,0.9634146341463414,steering,wheel,-2.10662525395582,0.5464651,Ours,High,3.950577793897361,1,NA,NA,NA
Implausible,1,10,wheel,cares,0,1,6.5998704992128365,The hardest part about painting my car is the steering wheel is oddly shaped.,50,5,0.9634146341463414,steering,wheel,-2.10662525395582,0.5464651,Ours,High,3.950577793897361,0,NA,NA,NA
Plausible,6,4,dairy,fined,1,1,7.3098814858247865,The manager found the dairy products in the tracking system.,52,5,0.9634146341463414,dairy,products,0.9368537460441795,0.1916258,Ours,High,2.9026518612570524,1,NA,NA,NA
Plausible,6,5,products,feedback,0,1,6.595780513961311,The manager found the dairy products in the tracking system.,52,5,0.9634146341463414,dairy,products,0.9368537460441795,0.1916258,Ours,High,2.9026518612570524,0,NA,NA,NA
Plausible,20,8,prescription,encouraged,1,1,6.825460036255307,The doctor told me to pick up my prescription drugs in order to prevent any further damage to my skin.,57,5,0.9634146341463414,prescription,drugs,1.9803317460441798,0.1027533,Ours,High,2.2794383189021077,1,NA,NA,NA
Plausible,20,9,drugs,pre,0,1,6.70196036600254,The doctor told me to pick up my prescription drugs in order to prevent any further damage to my skin.,57,5,0.9634146341463414,prescription,drugs,1.9803317460441798,0.1027533,Ours,High,2.2794383189021077,0,NA,NA,NA
Implausible,21,9,junk,der,1,0,6.411818267709897,Evan said that he shouldn't have eaten all his junk food since now he feels bad.,61,5,0.9634146341463414,junk,food,-1.1990162539558202,0.105548352,Ours,High,2.306276509972274,1,NA,NA,NA
Implausible,21,10,food,nova,0,1,7.1308988302963465,Evan said that he shouldn't have eaten all his junk food since now he feels bad.,61,5,0.9634146341463414,junk,food,-1.1990162539558202,0.105548352,Ours,High,2.306276509972274,0,NA,NA,NA
Plausible,30,5,safety,anyone,0,1,6.309918278226516,Mary was reassured about the safety belt because it was a big improvement.,64,5,0.9634146341463414,safety,belt,0.2176507460441801,0.002332,Staubs,Low,-1.506166382258579,1,NA,NA,NA
Plausible,30,6,belt,sees,1,1,6.902742737158593,Mary was reassured about the safety belt because it was a big improvement.,64,5,0.9634146341463414,safety,belt,0.2176507460441801,0.002332,Staubs,Low,-1.506166382258579,0,NA,NA,NA
Implausible,29,6,cafeteria,coincide,1,1,6.752270376141742,The new principal talked to the cafeteria manager at the end of the school day.,68,5,0.9634146341463414,cafeteria,manager,-1.15010325395582,0.002809,Staubs,Low,-1.320064102624718,1,NA,NA,NA
Implausible,29,7,manager,yours,0,1,6.912742820493176,The new principal talked to the cafeteria manager at the end of the school day.,68,5,0.9634146341463414,cafeteria,manager,-1.15010325395582,0.002809,Staubs,Low,-1.320064102624718,0,NA,NA,NA
Implausible,27,5,traffic,yeah,0,1,6.311734809152915,Nora was slowed at the traffic light near the new mall.,74,5,0.9634146341463414,traffic,light,-0.9906832539558201,0.013149,Staubs,Low,0.2234530593579569,1,NA,NA,NA
Implausible,27,6,light,happens,0,1,6.3561076606958915,Nora was slowed at the traffic light near the new mall.,74,5,0.9634146341463414,traffic,light,-0.9906832539558201,0.013149,Staubs,Low,0.2234530593579569,0,NA,NA,NA
Plausible,42,5,surface,anybody,1,1,6.873163834212518,The astronaut landed on the surface crater that had been rumored to exist.,76,5,0.9634146341463414,surface,crater,0.95598374604418,2.86e-6,Staubs,Low,-8.2098263048972,1,NA,NA,NA
Plausible,42,6,crater,redeem,1,1,7.29776828253138,The astronaut landed on the surface crater that had been rumored to exist.,76,5,0.9634146341463414,surface,crater,0.95598374604418,2.86e-6,Staubs,Low,-8.2098263048972,0,NA,NA,NA
Implausible,23,6,license,reveals,1,1,6.591673732008658,The new taxi driver installed the license plate for the cab he just bought.,79,5,0.9634146341463414,license,plate,-0.7240162539558201,0.0324,Staubs,Low,1.1252657720514594,1,NA,NA,NA
Implausible,23,7,plate,proud,0,1,6.659293919683638,The new taxi driver installed the license plate for the cab he just bought.,79,5,0.9634146341463414,license,plate,-0.7240162539558201,0.0324,Staubs,Low,1.1252657720514594,0,NA,NA,NA
Implausible,17,6,web,etc,0,1,6.582025138892826,I heard that Billy read a web site about dogs.,80,5,0.9634146341463414,web,site,-2.01966825395582,0.1143555,Ours,High,2.3864193665102027,1,NA,NA,NA
Implausible,17,7,site,anti,1,1,6.687108607866515,I heard that Billy read a web site about dogs.,80,5,0.9634146341463414,web,site,-2.01966825395582,0.1143555,Ours,High,2.3864193665102027,0,NA,NA,NA
Plausible,10,9,ice,fort,0,1,6.714170529909472,One of my favorite feelings is when I eat ice cream because it's so sweet.,81,5,0.9634146341463414,ice,cream,0.2846797460441799,0.1511365,Ours,High,2.6652907512400463,1,NA,NA,NA
Plausible,10,10,cream,naval,0,1,6.1441856341256456,One of my favorite feelings is when I eat ice cream because it's so sweet.,81,5,0.9634146341463414,ice,cream,0.2846797460441799,0.1511365,Ours,High,2.6652907512400463,0,NA,NA,NA
Plausible,22,7,concert,exist,1,1,6.878326468291325,Jane looked forward to going to the concert hall after it had been remodeled.,83,5,0.9634146341463414,concert,hall,1.5455487460441795,0.05123,Staubs,Low,1.5834326472042863,1,NA,NA,NA
Plausible,22,8,hall,worry,1,1,6.450470422144176,Jane looked forward to going to the concert hall after it had been remodeled.,83,5,0.9634146341463414,concert,hall,1.5455487460441795,0.05123,Staubs,Low,1.5834326472042863,0,NA,NA,NA
Plausible,38,4,kitchen,happens,1,1,6.818924065275521,The contractor admired the kitchen fixtures after the renovation.,84,5,0.9634146341463414,kitchen,fixtures,1.71765074604418,1.37e-4,Staubs,Low,-4.340667003900837,1,NA,NA,NA
Plausible,38,5,fixtures,cinnamon,1,1,6.4967749901858625,The contractor admired the kitchen fixtures after the renovation.,84,5,0.9634146341463414,kitchen,fixtures,1.71765074604418,1.37e-4,Staubs,Low,-4.340667003900837,0,NA,NA,NA
Plausible,40,4,elephant,minimize,1,0,6.525029657843462,The children loved the elephant shows that took place on Tuesday.,87,5,0.9634146341463414,elephant,shows,1.59265074604418,1.99e-5,Staubs,Low,-6.2699281979985155,1,NA,NA,NA
Plausible,40,5,shows,doubt,0,1,6.836259277277067,The children loved the elephant shows that took place on Tuesday.,87,5,0.9634146341463414,elephant,shows,1.59265074604418,1.99e-5,Staubs,Low,-6.2699281979985155,0,NA,NA,NA
Plausible,32,5,service,anymore,1,1,7.329749689041512,Gordon was annoyed by the service charges at the local mortgage company.,89,5,0.9634146341463414,service,charges,1.7629407460441797,0.001149,Staubs,Low,-2.2140006518802053,1,NA,NA,NA
Plausible,32,6,charges,glad,0,1,6.78105762593618,Gordon was annoyed by the service charges at the local mortgage company.,89,5,0.9634146341463414,service,charges,1.7629407460441797,0.001149,Staubs,Low,-2.2140006518802053,0,NA,NA,NA
Implausible,41,3,party,sir,1,1,6.5722825426940075,Kim modeled the party outfit that her mother had chosen.,97,5,0.9634146341463414,party,outfit,-1.12401625395582,1.54e-5,Staubs,Low,-6.526280420309378,1,NA,NA,NA
Implausible,41,4,outfit,manage,1,1,6.591673732008658,Kim modeled the party outfit that her mother had chosen.,97,5,0.9634146341463414,party,outfit,-1.12401625395582,1.54e-5,Staubs,Low,-6.526280420309378,0,NA,NA,NA
Implausible,11,8,wastewater,swapped,1,1,7.385230923066573,I was really worried after I administered the wastewater treatment because it wasn't adequately tested.,100,5,0.9634146341463414,wastewater,treatment,-1.1066252539558201,0.1460549,Ours,High,2.6310899276781887,1,NA,NA,NA
Implausible,11,9,treatment,implicitly,0,1,6.320768294250582,I was really worried after I administered the wastewater treatment because it wasn't adequately tested.,100,5,0.9634146341463414,wastewater,treatment,-1.1066252539558201,0.1460549,Ours,High,2.6310899276781887,0,NA,NA,NA
Implausible,37,4,elevator,academia,1,0,7.224753405767971,The maid scolded the elevator mechanic who was goofing off.,108,5,0.9634146341463414,elevator,mechanic,-2.1990162539558202,1.99e-4,Staubs,Low,-3.9673431050044687,1,NA,NA,NA
Implausible,37,5,mechanic,diaspora,1,1,7.204892510204673,The maid scolded the elevator mechanic who was goofing off.,108,5,0.9634146341463414,elevator,mechanic,-2.1990162539558202,1.99e-4,Staubs,Low,-3.9673431050044687,0,NA,NA,NA
Plausible,36,4,bathroom,declined,0,1,6.639875833826536,The visitors dirtied the bathroom towels on the first day of their stay.,111,5,0.9634146341463414,bathroom,towels,1.34265074604418,3.19e-4,Staubs,Low,-3.4954568269441175,1,NA,NA,NA
Plausible,36,5,towels,genera,1,1,6.680854678790215,The visitors dirtied the bathroom towels on the first day of their stay.,111,5,0.9634146341463414,bathroom,towels,1.34265074604418,3.19e-4,Staubs,Low,-3.4954568269441175,0,NA,NA,NA
Implausible,39,4,ceiling,breathe,1,1,6.848005274576363,Ricardo leaned against the ceiling supports while he ate his lunch.,117,5,0.9634146341463414,ceiling,supports,-1.3240162539558202,8.08e-5,Staubs,Low,-4.868670964201911,1,NA,NA,NA
Implausible,39,5,supports,gotten,1,1,6.97166860472579,Ricardo leaned against the ceiling supports while he ate his lunch.,117,5,0.9634146341463414,ceiling,supports,-1.3240162539558202,8.08e-5,Staubs,Low,-4.868670964201911,0,NA,NA,NA
Plausible,26,3,garbage,nowhere,1,1,6.873163834212518,Cindy smelled the garbage truck as it drove by her house.,120,5,0.9634146341463414,garbage,truck,1.80641874604418,0.015322,Staubs,Low,0.37639705334780515,1,NA,NA,NA
Plausible,26,4,truck,roman,0,1,6.6293632534374485,Cindy smelled the garbage truck as it drove by her house.,120,5,0.9634146341463414,garbage,truck,1.80641874604418,0.015322,Staubs,Low,0.37639705334780515,0,NA,NA,NA
Implausible,33,4,cabinet,suppose,0,1,6.577861357721047,The dealer counted the cabinet drawers before making the sale.,122,5,0.9634146341463414,cabinet,drawers,-1.12401625395582,7.71e-4,Staubs,Low,-2.612959556165632,1,NA,NA,NA
Implausible,33,5,drawers,forties,0,1,6.955592608396297,The dealer counted the cabinet drawers before making the sale.,122,5,0.9634146341463414,cabinet,drawers,-1.12401625395582,7.71e-4,Staubs,Low,-2.612959556165632,0,NA,NA,NA
Plausible,12,12,lung,troy,0,1,6.723832440821209,"Due to her difficulty of breathing, Jamie was really worried about her lung cancer because it is hard to treat.",135,5,0.9634146341463414,lung,cancer,1.41511374604418,0.1379383,Ours,High,2.57391383298145,1,NA,NA,NA
Plausible,12,13,cancer,wonder,1,1,6.961296045910167,"Due to her difficulty of breathing, Jamie was really worried about her lung cancer because it is hard to treat.",135,5,0.9634146341463414,lung,cancer,1.41511374604418,0.1379383,Ours,High,2.57391383298145,0,NA,NA,NA
Implausible,7,4,alcoholics,centimeter,1,0,7.187657164114956,The social worker founded alcoholics anonymous to help people.,138,5,0.9634146341463414,alcoholics,anonymous,-1.8892332539558203,0.1876327,Ours,High,2.881593677671841,1,NA,NA,NA
Implausible,7,5,anonymous,telescope,0,1,6.92461239604856,The social worker founded alcoholics anonymous to help people.,138,5,0.9634146341463414,alcoholics,anonymous,-1.8892332539558203,0.1876327,Ours,High,2.881593677671841,0,NA,NA,NA
Plausible,37,4,elevator,academia,1,1,8.321664807135,The maid caught the elevator mechanic who was goofing off.,10,6,0.903169014084507,elevator,mechanic,0.02380974604418018,1.99e-4,Staubs,Low,-3.9673431050044687,1,NA,NA,NA
Plausible,37,5,mechanic,diaspora,1,1,7.288244401020124,The maid caught the elevator mechanic who was goofing off.,10,6,0.903169014084507,elevator,mechanic,0.02380974604418018,1.99e-4,Staubs,Low,-3.9673431050044687,0,NA,NA,NA
Implausible,28,5,package,prefer,1,0,6.910750787961936,Jane listened carefully to the package deal to make sure it was a bargain.,15,6,0.903169014084507,package,deal,-0.9327122539558204,0.006036,Staubs,Low,-0.5551511098412218,1,NA,NA,NA
Implausible,28,6,deal,fat,1,1,7.051855622955894,Jane listened carefully to the package deal to make sure it was a bargain.,15,6,0.903169014084507,package,deal,-0.9327122539558204,0.006036,Staubs,Low,-0.5551511098412218,0,NA,NA,NA
Plausible,21,10,junk,nova,0,1,6.881411303642535,Evan said that he shouldn't have thrown out all his junk food since now he feels bad.,17,6,0.903169014084507,junk,food,1.9368537460441795,0.105548352,Ours,High,2.306276509972274,1,NA,NA,NA
Plausible,21,11,food,hear,0,1,6.715383386334681,Evan said that he shouldn't have thrown out all his junk food since now he feels bad.,17,6,0.903169014084507,junk,food,1.9368537460441795,0.105548352,Ours,High,2.306276509972274,0,NA,NA,NA
Plausible,19,15,toilet,fought,1,1,6.504288173536645,The worst part about using the bathroom in public is that they never flush the toilet paper no matter when you go.,26,6,0.903169014084507,toilet,paper,1.9803317460441798,0.11059946,Ours,High,2.353022555870178,1,NA,NA,NA
Plausible,19,16,paper,yes,0,1,7.256297239690681,The worst part about using the bathroom in public is that they never flush the toilet paper no matter when you go.,26,6,0.903169014084507,toilet,paper,1.9803317460441798,0.11059946,Ours,High,2.353022555870178,0,NA,NA,NA
Implausible,6,4,dairy,fined,0,1,6.7464121285733745,The manager logged the dairy products in the tracking system.,30,6,0.903169014084507,dairy,products,-0.8656832539558201,0.1916258,Ours,High,2.9026518612570524,1,NA,NA,NA
Implausible,6,5,products,feedback,1,1,7.066466970136958,The manager logged the dairy products in the tracking system.,30,6,0.903169014084507,dairy,products,-0.8656832539558201,0.1916258,Ours,High,2.9026518612570524,0,NA,NA,NA
Implausible,30,3,safety,expect,0,0,6.71295620067707,Mary bought the safety belt because it was a big improvement.,34,6,0.903169014084507,safety,belt,-1.2805382539558203,0.002332,Staubs,Low,-1.506166382258579,1,NA,NA,NA
Implausible,30,4,belt,ben,0,1,6.940222469119639,Mary bought the safety belt because it was a big improvement.,34,6,0.903169014084507,safety,belt,-1.2805382539558203,0.002332,Staubs,Low,-1.506166382258579,0,NA,NA,NA
Plausible,27,6,traffic,happens,0,1,6.813444599510896,Nora was held up by the traffic light near the new mall.,37,6,0.903169014084507,traffic,light,1.9368537460441795,0.013149,Staubs,Low,0.2234530593579569,1,NA,NA,NA
Plausible,27,7,light,yours,1,1,6.897704943128636,Nora was held up by the traffic light near the new mall.,37,6,0.903169014084507,traffic,light,1.9368537460441795,0.013149,Staubs,Low,0.2234530593579569,0,NA,NA,NA
Plausible,5,6,insider,utilize,0,1,7.072421900537371,I read an article about the insider trading that cost one company millions of dollars.,39,6,0.903169014084507,insider,trading,0.7559837460441798,0.2203773,Ours,High,3.0424484266722773,1,NA,NA,NA
Plausible,5,7,trading,mammals,1,1,7.335633981927201,I read an article about the insider trading that cost one company millions of dollars.,39,6,0.903169014084507,insider,trading,0.7559837460441798,0.2203773,Ours,High,3.0424484266722773,0,NA,NA,NA
Plausible,1,9,steering,appealed,0,1,7.395721608602045,The hardest part about driving my car is the steering wheel is oddly shaped.,40,6,0.903169014084507,steering,wheel,1.4259837460441798,0.5464651,Ours,High,3.950577793897361,1,NA,NA,NA
Plausible,1,10,wheel,cares,1,0,6.212606095751519,The hardest part about driving my car is the steering wheel is oddly shaped.,40,6,0.903169014084507,steering,wheel,1.4259837460441798,0.5464651,Ours,High,3.950577793897361,0,NA,NA,NA
Plausible,7,4,alcoholics,centimeter,1,1,6.894670039433482,The social worker visits alcoholics anonymous to help people.,41,6,0.903169014084507,alcoholics,anonymous,1.5959837460441797,0.1876327,Ours,High,2.881593677671841,1,NA,NA,NA
Plausible,7,5,anonymous,telescope,0,1,6.841615476477592,The social worker visits alcoholics anonymous to help people.,41,6,0.903169014084507,alcoholics,anonymous,1.5959837460441797,0.1876327,Ours,High,2.881593677671841,0,NA,NA,NA
Plausible,39,3,ceiling,eat,0,0,6.6240652277998935,Ricardo painted the ceiling supports while he ate his lunch.,44,6,0.903169014084507,ceiling,supports,1.9803317460441798,8.08e-5,Staubs,Low,-4.868670964201911,1,NA,NA,NA
Plausible,39,4,supports,breathe,0,1,8.034955024502159,Ricardo painted the ceiling supports while he ate his lunch.,44,6,0.903169014084507,ceiling,supports,1.9803317460441798,8.08e-5,Staubs,Low,-4.868670964201911,0,NA,NA,NA
Implausible,40,4,elephant,minimize,0,1,7.703459047867175,The children attended the elephant shows that took place on Tuesday.,46,6,0.903169014084507,elephant,shows,-1.4979292539558204,1.99e-5,Staubs,Low,-6.2699281979985155,1,NA,NA,NA
Implausible,40,5,shows,doubt,1,1,7.1853870155804165,The children attended the elephant shows that took place on Tuesday.,46,6,0.903169014084507,elephant,shows,-1.4979292539558204,1.99e-5,Staubs,Low,-6.2699281979985155,0,NA,NA,NA
Plausible,11,9,wastewater,implicitly,1,1,7.289610521451167,I was really worried after I read about the wastewater treatment because it wasn't adequately tested.,49,6,0.903169014084507,wastewater,treatment,0.7593167460441794,0.1460549,Ours,High,2.6310899276781887,1,NA,NA,NA
Plausible,11,10,treatment,republic,1,1,6.680854678790215,I was really worried after I read about the wastewater treatment because it wasn't adequately tested.,49,6,0.903169014084507,wastewater,treatment,0.7593167460441794,0.1460549,Ours,High,2.6310899276781887,0,NA,NA,NA
Implausible,2,13,locker,smoked,1,1,7.102499355774649,Kimmy panicked when she realized that she left the faucet running in the locker room after gym class.,52,6,0.903169014084507,locker,room,-1.4906832539558201,0.5015731,Ours,High,3.8648567087446786,1,NA,NA,NA
Implausible,2,14,room,stars,1,1,6.447305862541213,Kimmy panicked when she realized that she left the faucet running in the locker room after gym class.,52,6,0.903169014084507,locker,room,-1.4906832539558201,0.5015731,Ours,High,3.8648567087446786,0,NA,NA,NA
Implausible,8,4,baking,victor,0,1,6.53813982376767,Timmy absolutely loves buying baking sheets with anyone who is willing.,53,6,0.903169014084507,baking,sheets,-2.4490162539558202,0.1552467,Ours,High,2.6921228138022038,1,NA,NA,NA
Implausible,8,5,sheets,bailey,0,1,6.654152520183219,Timmy absolutely loves buying baking sheets with anyone who is willing.,53,6,0.903169014084507,baking,sheets,-2.4490162539558202,0.1552467,Ours,High,2.6921228138022038,0,NA,NA,NA
Plausible,41,4,party,manage,1,1,6.4457198193855785,Kim heard about the party outfit that her mother had chosen.,57,6,0.903169014084507,party,outfit,1.8498967460441795,1.54e-5,Staubs,Low,-6.526280420309378,1,NA,NA,NA
Plausible,41,5,outfit,miller,0,1,6.98100574072173,Kim heard about the party outfit that her mother had chosen.,57,6,0.903169014084507,party,outfit,1.8498967460441795,1.54e-5,Staubs,Low,-6.526280420309378,0,NA,NA,NA
Plausible,29,5,cafeteria,derives,1,1,6.51471269087253,The new principal visited the cafeteria manager at the end of the school day.,58,6,0.903169014084507,cafeteria,manager,2.1959837460441793,0.002809,Staubs,Low,-1.320064102624718,1,NA,NA,NA
Plausible,29,6,manager,coincide,0,1,6.542471960506805,The new principal visited the cafeteria manager at the end of the school day.,58,6,0.903169014084507,cafeteria,manager,2.1959837460441793,0.002809,Staubs,Low,-1.320064102624718,0,NA,NA,NA
Plausible,9,3,baking,bailey,0,1,6.428105272684596,My mom loves baking dishes from the new grocery store.,59,6,0.903169014084507,baking,dishes,2.3843167460441794,0.1538439,Ours,High,2.6830458012264087,1,NA,NA,NA
Plausible,9,4,dishes,quoted,1,1,6.484635235635252,My mom loves baking dishes from the new grocery store.,59,6,0.903169014084507,baking,dishes,2.3843167460441794,0.1538439,Ours,High,2.6830458012264087,0,NA,NA,NA
Plausible,35,7,problem,follows,0,1,6.411818267709897,The teacher was unable to understand the problem child in her class.,61,6,0.903169014084507,problem,child,1.95598374604418,3.68e-4,Staubs,Low,-3.3525649915600306,1,NA,NA,NA
Plausible,35,8,child,yours,1,0,6.22455842927536,The teacher was unable to understand the problem child in her class.,61,6,0.903169014084507,problem,child,1.95598374604418,3.68e-4,Staubs,Low,-3.3525649915600306,0,NA,NA,NA
Plausible,3,7,dining,lakes,1,1,6.692083742506628,When I was a kid I hated dining rooms because they were always so boring.,66,6,0.903169014084507,dining,rooms,-0.11568325395582058,0.3117497,Ours,High,3.3893079715033156,1,NA,NA,NA
Plausible,3,8,rooms,occur,0,1,6.635946555686647,When I was a kid I hated dining rooms because they were always so boring.,66,6,0.903169014084507,dining,rooms,-0.11568325395582058,0.3117497,Ours,High,3.3893079715033156,0,NA,NA,NA
Implausible,12,12,lung,troy,1,1,6.586171654854675,"Due to her difficulty of breathing, Jamie was really worried about having lung cancer because it is hard to treat.",68,6,0.903169014084507,lung,cancer,-1.0040162539558204,0.1379383,Ours,High,2.57391383298145,1,NA,NA,NA
Implausible,12,13,cancer,wonder,0,1,6.583409222158765,"Due to her difficulty of breathing, Jamie was really worried about having lung cancer because it is hard to treat.",68,6,0.903169014084507,lung,cancer,-1.0040162539558204,0.1379383,Ours,High,2.57391383298145,0,NA,NA,NA
Implausible,36,4,bathroom,declined,1,1,6.590301048196686,The visitors folded the bathroom towels on the first day of their stay.,73,6,0.903169014084507,bathroom,towels,-2.15010325395582,3.19e-4,Staubs,Low,-3.4954568269441175,1,NA,NA,NA
Implausible,36,5,towels,genera,1,1,6.093569770045136,The visitors folded the bathroom towels on the first day of their stay.,73,6,0.903169014084507,bathroom,towels,-2.15010325395582,3.19e-4,Staubs,Low,-3.4954568269441175,0,NA,NA,NA
Implausible,24,3,funeral,cent,1,1,6.810142450115136,Sam phoned the funeral home so that they would send a limousine.,80,6,0.903169014084507,funeral,home,-1.1990162539558202,0.02871,Staubs,Low,1.004352843386148,1,NA,NA,NA
Implausible,24,4,home,yeah,0,1,6.532334292222349,Sam phoned the funeral home so that they would send a limousine.,80,6,0.903169014084507,funeral,home,-1.1990162539558202,0.02871,Staubs,Low,1.004352843386148,0,NA,NA,NA
Implausible,26,3,garbage,nowhere,1,1,6.802394763324311,Cindy heard the garbage truck as it drove by her house.,87,6,0.903169014084507,garbage,truck,-0.32401625395582023,0.015322,Staubs,Low,0.37639705334780515,1,NA,NA,NA
