plausibility,familiarity,group,word_num,word,distractor,on_right,correct,rt,sentence,trial_num,subject,MeanCor,N1,N2,whichfirst
implausible,familiar,42,2,taxi,heal,TRUE,1,6.76849321164863,The new taxi driver installed the license plate for the cab he just bought.,9,1,0.9860627177700348,taxi,driver,1
implausible,familiar,42,3,driver,stupid,FALSE,1,6.62273632394984,The new taxi driver installed the license plate for the cab he just bought.,9,1,0.9860627177700348,taxi,driver,0
implausible,novel,22,3,pencil,admire,TRUE,1,6.898714534329988,Larry emptied the pencil shavings in the wastebasket.,11,1,0.9860627177700348,pencil,shavings,1
implausible,novel,22,4,shavings,droughts,TRUE,1,6.902742737158593,Larry emptied the pencil shavings in the wastebasket.,11,1,0.9860627177700348,pencil,shavings,0
implausible,familiar,46,7,weight,except,FALSE,1,7.693481640835175,"It was a great event, but the weight lifter finally won the competition.",18,1,0.9860627177700348,weight,lifter,1
implausible,familiar,46,8,lifter,mucous,FALSE,1,7.3914152346753585,"It was a great event, but the weight lifter finally won the competition.",18,1,0.9860627177700348,weight,lifter,0
implausible,novel,12,4,backpack,converge,TRUE,1,7.27931883541462,The camper read the backpack label after leaving the store.,20,1,0.9860627177700348,backpack,label,1
implausible,novel,12,5,label,loves,TRUE,1,6.608000625296087,The camper read the backpack label after leaving the store.,20,1,0.9860627177700348,backpack,label,0
implausible,familiar,48,3,service,anymore,TRUE,1,7.148345743900068,Gordon calculated the service charges at the local mortgage company.,22,1,0.9860627177700348,service,charges,1
implausible,familiar,48,4,charges,breathe,TRUE,1,6.81783057145415,Gordon calculated the service charges at the local mortgage company.,22,1,0.9860627177700348,service,charges,0
implausible,novel,14,5,surface,deserve,TRUE,1,6.54965074223381,The astronaut dropped into the surface crater that had been rumored to exist.,23,1,0.9860627177700348,surface,crater,1
implausible,novel,14,6,crater,sexist,FALSE,1,6.20050917404269,The astronaut dropped into the surface crater that had been rumored to exist.,23,1,0.9860627177700348,surface,crater,0
plausible,novel,9,3,music,yours,TRUE,1,6.9411900550683745,Veronica heard the music salesman at the front door.,25,1,0.9860627177700348,music,salesman,1
plausible,novel,9,4,salesman,motorway,FALSE,1,7.758760544157663,Veronica heard the music salesman at the front door.,25,1,0.9860627177700348,music,salesman,0
implausible,novel,20,4,ceiling,arrives,TRUE,1,6.541029999189903,Ricardo leaned against the ceiling supports while he ate his lunch.,27,1,0.9860627177700348,ceiling,supports,1
implausible,novel,20,5,supports,download,TRUE,1,7.679251425953058,Ricardo leaned against the ceiling supports while he ate his lunch.,27,1,0.9860627177700348,ceiling,supports,0
plausible,novel,17,4,bathroom,treating,TRUE,1,7.724888439323074,The visitors dirtied the bathroom towels on the first day of their stay.,32,1,0.9860627177700348,bathroom,towels,1
plausible,novel,17,5,towels,repeal,TRUE,1,7.1049654482698426,The visitors dirtied the bathroom towels on the first day of their stay.,32,1,0.9860627177700348,bathroom,towels,0
plausible,novel,23,5,plant,idiot,TRUE,1,6.901737206656574,The botany professor fed the plant parasites that she was studying.,33,1,0.9860627177700348,plant,parasites,1
plausible,novel,23,6,parasites,emphasise,TRUE,1,7.081708586105575,The botany professor fed the plant parasites that she was studying.,33,1,0.9860627177700348,plant,parasites,0
plausible,novel,5,5,cafeteria,adventures,FALSE,1,6.706862336602747,The new principal visited the cafeteria manager at the end of the school day.,39,1,0.9860627177700348,cafeteria,manager,1
plausible,novel,5,6,manager,absence,FALSE,1,6.92951677076365,The new principal visited the cafeteria manager at the end of the school day.,39,1,0.9860627177700348,cafeteria,manager,0
plausible,novel,11,4,author,denied,TRUE,1,7.090076835776092,The editor liked the author conferences to take place on Tuesday.,40,1,0.9860627177700348,author,conferences,1
plausible,novel,11,5,conferences,helicopters,TRUE,1,7.403670290012373,The editor liked the author conferences to take place on Tuesday.,40,1,0.9860627177700348,author,conferences,0
plausible,familiar,33,4,savings,extends,FALSE,1,6.559615237493242,John counted on his savings bank because of the bad economy.,43,1,0.9860627177700348,savings,bank,1
plausible,familiar,33,5,bank,okay,FALSE,0,7.05444965813294,John counted on his savings bank because of the bad economy.,43,1,0.9860627177700348,savings,bank,0
plausible,novel,15,4,elephant,incurred,FALSE,1,7.01211529430638,The children loved the elephant shows that took place on Tuesday.,46,1,0.9860627177700348,elephant,shows,1
plausible,novel,15,5,shows,doubt,FALSE,1,7.510430556378006,The children loved the elephant shows that took place on Tuesday.,46,1,0.9860627177700348,elephant,shows,0
plausible,novel,13,4,cabinet,warfare,FALSE,1,6.723832440821209,The dealer polished the cabinet drawers before making the sale.,52,1,0.9860627177700348,cabinet,drawers,1
plausible,novel,13,5,drawers,infancy,FALSE,1,6.877296071497429,The dealer polished the cabinet drawers before making the sale.,52,1,0.9860627177700348,cabinet,drawers,0
plausible,familiar,37,3,garbage,onwards,FALSE,1,6.779921907472252,Cindy smelled the garbage truck as it drove by her house.,58,1,0.9860627177700348,garbage,truck,1
plausible,familiar,37,4,truck,sixth,TRUE,1,6.824373670043086,Cindy smelled the garbage truck as it drove by her house.,58,1,0.9860627177700348,garbage,truck,0
implausible,familiar,30,5,nursery,conquer,TRUE,1,7.351158226430694,The teacher read over the nursery rhyme before reciting it to the class.,63,1,0.9860627177700348,nursery,rhyme,1
implausible,familiar,30,6,rhyme,garde,FALSE,1,6.732210706467206,The teacher read over the nursery rhyme before reciting it to the class.,63,1,0.9860627177700348,nursery,rhyme,0
implausible,novel,6,4,casserole,evaluates,FALSE,0,7.440146680662688,Mr. Randolph shook the casserole spices into the pot.,66,1,0.9860627177700348,casserole,spices,1
implausible,novel,6,5,spices,expire,TRUE,1,7.3427791893318455,Mr. Randolph shook the casserole spices into the pot.,66,1,0.9860627177700348,casserole,spices,0
implausible,familiar,40,4,traffic,anymore,TRUE,1,6.866933284461882,Nora slowed at the traffic light near the new mall.,67,1,0.9860627177700348,traffic,light,1
implausible,familiar,40,5,light,yours,TRUE,1,6.359573868672378,Nora slowed at the traffic light near the new mall.,67,1,0.9860627177700348,traffic,light,0
implausible,novel,2,5,muffin,entail,TRUE,1,6.45833828334479,The hungry racoon ripped the muffin container while going through the garbage.,68,1,0.9860627177700348,muffin,container,1
implausible,novel,2,6,container,undermine,FALSE,1,7.02108396428914,The hungry racoon ripped the muffin container while going through the garbage.,68,1,0.9860627177700348,muffin,container,0
plausible,familiar,25,5,dinner,forgot,FALSE,1,6.35088571671474,He looked forward to the dinner table being shipped this week.,69,1,0.9860627177700348,dinner,table,1
plausible,familiar,25,6,table,worry,FALSE,1,6.428105272684596,He looked forward to the dinner table being shipped this week.,69,1,0.9860627177700348,dinner,table,0
plausible,familiar,47,5,security,download,FALSE,1,6.964135612418245,The local police worried about security risks at the airport on the holidays.,71,1,0.9860627177700348,security,risks,1
plausible,familiar,47,6,risks,ninth,FALSE,1,6.470799503782602,The local police worried about security risks at the airport on the holidays.,71,1,0.9860627177700348,security,risks,0
plausible,familiar,45,6,talent,refers,FALSE,1,6.565264970035361,The anxious starlet didn't have a talent scout who would promote her.,72,1,0.9860627177700348,talent,scout,1
plausible,familiar,45,7,scout,scans,TRUE,1,7.049254841255837,The anxious starlet didn't have a talent scout who would promote her.,72,1,0.9860627177700348,talent,scout,0
plausible,familiar,27,4,shower,afford,TRUE,1,6.602587892189336,Sam tried out the shower curtain to be sure it was the right size.,73,1,0.9860627177700348,shower,curtain,1
plausible,familiar,27,5,curtain,innings,TRUE,1,7.487733761436444,Sam tried out the shower curtain to be sure it was the right size.,73,1,0.9860627177700348,shower,curtain,0
implausible,familiar,44,7,problem,follows,TRUE,1,7.605392364814935,The teacher was unable to scold the problem child in her class.,74,1,0.9860627177700348,problem,child,1
implausible,familiar,44,8,child,yours,TRUE,1,6.450470422144176,The teacher was unable to scold the problem child in her class.,74,1,0.9860627177700348,problem,child,0
implausible,familiar,36,6,family,except,TRUE,1,7.099201743553092,The new office complex had a family doctor with a degree from Harvard.,79,1,0.9860627177700348,family,doctor,1
implausible,familiar,36,7,doctor,rivers,TRUE,1,6.8308742346461795,The new office complex had a family doctor with a degree from Harvard.,79,1,0.9860627177700348,family,doctor,0
implausible,familiar,32,3,funeral,depends,TRUE,1,6.54534966033442,Sam phoned the funeral home so that they would send a limousine.,82,1,0.9860627177700348,funeral,home,1
implausible,familiar,32,4,home,rise,TRUE,1,6.716594773520978,Sam phoned the funeral home so that they would send a limousine.,82,1,0.9860627177700348,funeral,home,0
implausible,familiar,26,5,package,suppose,FALSE,0,6.931471805599453,Jane listened carefully to the package deal to make sure it was a bargain.,86,1,0.9860627177700348,package,deal,1
implausible,familiar,26,6,deal,holy,TRUE,1,7.013915474810528,Jane listened carefully to the package deal to make sure it was a bargain.,86,1,0.9860627177700348,package,deal,0
plausible,familiar,35,5,ballet,misuse,FALSE,1,6.910750787961936,The last performance of the ballet dancer was warmly applauded.,88,1,0.9860627177700348,ballet,dancer,1
plausible,familiar,35,6,dancer,repeal,TRUE,1,6.6293632534374485,The last performance of the ballet dancer was warmly applauded.,88,1,0.9860627177700348,ballet,dancer,0
implausible,familiar,28,4,mountain,achieved,FALSE,1,7.407924322559599,Jenny heard the huge mountain lion pacing in its cage.,94,1,0.9860627177700348,mountain,lion,1
implausible,familiar,28,5,lion,troy,FALSE,1,6.656726524178391,Jenny heard the huge mountain lion pacing in its cage.,94,1,0.9860627177700348,mountain,lion,0
plausible,familiar,31,6,pillow,derive,FALSE,1,6.556778356158042,The kids decided to move the pillow fight when the video was over.,98,1,0.9860627177700348,pillow,fight,1
plausible,familiar,31,7,fight,terms,FALSE,1,6.9865664594064265,The kids decided to move the pillow fight when the video was over.,98,1,0.9860627177700348,pillow,fight,0
plausible,familiar,41,5,station,figured,FALSE,1,7.330405211844402,Barbara went over to her station wagon and put some money in the parking meter.,99,1,0.9860627177700348,station,wagon,1
plausible,familiar,41,6,wagon,creep,FALSE,1,6.782192056006791,Barbara went over to her station wagon and put some money in the parking meter.,99,1,0.9860627177700348,station,wagon,0
implausible,familiar,34,3,season,anyone,FALSE,1,7.022868086082641,Arnie bought the season tickets though they cost more than last year.,101,1,0.9860627177700348,season,tickets,1
implausible,familiar,34,4,tickets,applies,TRUE,1,6.643789733147672,Arnie bought the season tickets though they cost more than last year.,101,1,0.9860627177700348,season,tickets,0
plausible,novel,1,5,monkey,relies,FALSE,1,7.15305163493748,The zookeeper picked up the monkey medicine that was in the enclosure.,107,1,0.9860627177700348,monkey,medicine,1
plausible,novel,1,6,medicine,reliable,FALSE,1,6.964135612418245,The zookeeper picked up the monkey medicine that was in the enclosure.,107,1,0.9860627177700348,monkey,medicine,0
plausible,familiar,39,5,safety,define,FALSE,1,7.026426808699636,Mary was reassured about the safety belt because it was a big improvement.,110,1,0.9860627177700348,safety,belt,1
plausible,familiar,39,6,belt,nova,TRUE,1,7.382746449738912,Mary was reassured about the safety belt because it was a big improvement.,110,1,0.9860627177700348,safety,belt,0
plausible,familiar,43,7,concert,exports,FALSE,1,6.704414354964107,Jane looked forward to going to the concert hall after it had been remodeled.,113,1,0.9860627177700348,concert,hall,1
plausible,familiar,43,8,hall,sake,FALSE,1,7.085064293952548,Jane looked forward to going to the concert hall after it had been remodeled.,113,1,0.9860627177700348,concert,hall,0
plausible,familiar,29,4,office,happen,FALSE,1,6.456769655572163,David often approached his office work with a feeling of dread.,116,1,0.9860627177700348,office,work,1
plausible,familiar,29,5,work,yeah,FALSE,1,6.818924065275521,David often approached his office work with a feeling of dread.,116,1,0.9860627177700348,office,work,0
plausible,novel,21,4,platoon,earners,TRUE,1,6.705639094860003,Captain Jones ordered the platoon commander to discipline his men better.,117,1,0.9860627177700348,platoon,commander,1
plausible,novel,21,5,commander,disorders,TRUE,1,6.9411900550683745,Captain Jones ordered the platoon commander to discipline his men better.,117,1,0.9860627177700348,platoon,commander,0
implausible,novel,24,4,wiring,hereby,TRUE,1,6.70808408385307,The electrician drew the wiring sketch at the construction site.,119,1,0.9860627177700348,wiring,sketch,1
implausible,novel,24,5,sketch,asylum,FALSE,1,6.767343125265392,The electrician drew the wiring sketch at the construction site.,119,1,0.9860627177700348,wiring,sketch,0
implausible,novel,10,5,automobile,advocating,FALSE,1,6.593044534142437,The mechanic listened to the automobile radio on his lunch break.,121,1,0.9860627177700348,automobile,radio,1
implausible,novel,10,6,radio,favor,TRUE,1,6.795705775173514,The mechanic listened to the automobile radio on his lunch break.,121,1,0.9860627177700348,automobile,radio,0
plausible,novel,19,4,school,itself,TRUE,1,6.373319789577012,Lucy walked by the school janitor on the first day of class.,125,1,0.9860627177700348,school,janitor,1
plausible,novel,19,5,janitor,utilise,TRUE,1,6.576469569048224,Lucy walked by the school janitor on the first day of class.,125,1,0.9860627177700348,school,janitor,0
implausible,novel,16,4,kitchen,anymore,TRUE,1,6.666956792429207,The contractor ordered the kitchen fixtures after the renovation.,130,1,0.9860627177700348,kitchen,fixtures,1
implausible,novel,16,5,fixtures,cinnamon,TRUE,1,7.026426808699636,The contractor ordered the kitchen fixtures after the renovation.,130,1,0.9860627177700348,kitchen,fixtures,0
implausible,familiar,38,3,laundry,prefers,TRUE,1,6.905753276311464,John opened the laundry basket and started to throw his dirty clothes in it.,133,1,0.9860627177700348,laundry,basket,1
implausible,familiar,38,4,basket,exodus,TRUE,1,6.272877006546167,John opened the laundry basket and started to throw his dirty clothes in it.,133,1,0.9860627177700348,laundry,basket,0
implausible,novel,11,4,author,denied,FALSE,1,7.857867559331803,The editor planned the author conferences to take place on Tuesday.,6,2,0.9621125143513203,author,conferences,1
implausible,novel,11,5,conferences,helicopters,FALSE,1,7.273092595999522,The editor planned the author conferences to take place on Tuesday.,6,2,0.9621125143513203,author,conferences,0
implausible,familiar,31,5,pillow,derive,TRUE,1,6.852242569051878,The kids started having the pillow fight when the video was over.,8,2,0.9621125143513203,pillow,fight,1
implausible,familiar,31,6,fight,terms,TRUE,1,6.150602768446279,The kids started having the pillow fight when the video was over.,8,2,0.9621125143513203,pillow,fight,0
plausible,familiar,38,4,laundry,prefers,TRUE,1,7.440733707389261,John went to the laundry basket and started to throw his dirty clothes in it.,15,2,0.9621125143513203,laundry,basket,1
plausible,familiar,38,5,basket,exodus,FALSE,1,6.7226297948554485,John went to the laundry basket and started to throw his dirty clothes in it.,15,2,0.9621125143513203,laundry,basket,0
plausible,novel,22,3,pencil,admire,TRUE,1,6.493753839851686,Larry dropped the pencil shavings in the wastebasket.,18,2,0.9621125143513203,pencil,shavings,1
plausible,novel,22,4,shavings,droughts,TRUE,1,6.920671504248683,Larry dropped the pencil shavings in the wastebasket.,18,2,0.9621125143513203,pencil,shavings,0
implausible,novel,1,5,monkey,relies,TRUE,1,7.427738840532894,The zookeeper spread out the monkey medicine that was in the enclosure.,19,2,0.9621125143513203,monkey,medicine,1
implausible,novel,1,6,medicine,reliable,TRUE,0,6.418364935936212,The zookeeper spread out the monkey medicine that was in the enclosure.,19,2,0.9621125143513203,monkey,medicine,0
implausible,familiar,37,3,garbage,onwards,FALSE,1,7.496097345175956,Cindy heard the garbage truck as it drove by her house.,23,2,0.9621125143513203,garbage,truck,1
implausible,familiar,37,4,truck,sixth,TRUE,1,7.079184394609668,Cindy heard the garbage truck as it drove by her house.,23,2,0.9621125143513203,garbage,truck,0
plausible,familiar,42,2,taxi,heal,TRUE,1,7.22402480828583,The new taxi driver needed the license plate for the cab he just bought.,26,2,0.9621125143513203,taxi,driver,1
plausible,familiar,42,3,driver,stupid,TRUE,1,6.489204931325317,The new taxi driver needed the license plate for the cab he just bought.,26,2,0.9621125143513203,taxi,driver,0
implausible,familiar,33,5,savings,extends,FALSE,1,7.304515946460155,John did business with his savings bank because of the bad economy.,36,2,0.9621125143513203,savings,bank,1
implausible,familiar,33,6,bank,okay,TRUE,1,6.955592608396297,John did business with his savings bank because of the bad economy.,36,2,0.9621125143513203,savings,bank,0
plausible,familiar,48,5,service,anymore,TRUE,1,6.752270376141742,Gordon was annoyed by the service charges at the local mortgage company.,44,2,0.9621125143513203,service,charges,1
plausible,familiar,48,6,charges,breathe,TRUE,1,6.709304340258298,Gordon was annoyed by the service charges at the local mortgage company.,44,2,0.9621125143513203,service,charges,0
plausible,familiar,34,3,season,anyone,FALSE,1,7.487733761436444,Arnie enjoyed the season tickets though they cost more than last year.,48,2,0.9621125143513203,season,tickets,1
plausible,familiar,34,4,tickets,applies,TRUE,1,7.118826249062078,Arnie enjoyed the season tickets though they cost more than last year.,48,2,0.9621125143513203,season,tickets,0
implausible,novel,13,4,cabinet,warfare,FALSE,1,7.636752112435779,The dealer counted the cabinet drawers before making the sale.,49,2,0.9621125143513203,cabinet,drawers,1
implausible,novel,13,5,drawers,infancy,FALSE,1,6.846943139585379,The dealer counted the cabinet drawers before making the sale.,49,2,0.9621125143513203,cabinet,drawers,0
implausible,novel,17,4,bathroom,treating,FALSE,0,7.266827347520591,The visitors folded the bathroom towels on the first day of their stay.,51,2,0.9621125143513203,bathroom,towels,1
implausible,novel,17,5,towels,repeal,FALSE,1,6.359573868672378,The visitors folded the bathroom towels on the first day of their stay.,51,2,0.9621125143513203,bathroom,towels,0
plausible,novel,8,3,homework,utilized,TRUE,1,6.774223886357614,Lindsay finished her homework essays before going to bed.,52,2,0.9621125143513203,homework,essays,1
plausible,novel,8,4,essays,beasts,TRUE,1,7.163946684342547,Lindsay finished her homework essays before going to bed.,52,2,0.9621125143513203,homework,essays,0
implausible,familiar,45,6,talent,refers,FALSE,1,7.534762657037537,The anxious starlet hadn't met a talent scout who would promote her.,53,2,0.9621125143513203,talent,scout,1
implausible,familiar,45,7,scout,scans,TRUE,1,6.450470422144176,The anxious starlet hadn't met a talent scout who would promote her.,53,2,0.9621125143513203,talent,scout,0
plausible,novel,4,5,library,deserve,FALSE,1,6.740519359606223,George spent time at the library table so that he could sort through the books.,56,2,0.9621125143513203,library,table,1
plausible,novel,4,6,table,worry,FALSE,1,7.0707241072602764,George spent time at the library table so that he could sort through the books.,56,2,0.9621125143513203,library,table,0
implausible,familiar,41,5,station,figured,FALSE,1,6.343880434126331,Barbara went over in her station wagon and put some money in the parking meter.,57,2,0.9621125143513203,station,wagon,1
implausible,familiar,41,6,wagon,creep,FALSE,1,7.038783541388542,Barbara went over in her station wagon and put some money in the parking meter.,57,2,0.9621125143513203,station,wagon,0
implausible,familiar,43,6,concert,exports,TRUE,1,7.134890851565884,Jane looked forward to visiting the concert hall after it had been remodeled.,59,2,0.9621125143513203,concert,hall,1
implausible,familiar,43,7,hall,sake,TRUE,1,7.333676395657684,Jane looked forward to visiting the concert hall after it had been remodeled.,59,2,0.9621125143513203,concert,hall,0
implausible,familiar,35,5,ballet,misuse,FALSE,1,6.594413459749778,The graceful leap of the ballet dancer was warmly applauded.,63,2,0.9621125143513203,ballet,dancer,1
implausible,familiar,35,6,dancer,repeal,FALSE,1,6.464588303689961,The graceful leap of the ballet dancer was warmly applauded.,63,2,0.9621125143513203,ballet,dancer,0
implausible,familiar,39,3,safety,define,TRUE,1,7.007600613951853,Mary bought the safety belt because it was a big improvement.,65,2,0.9621125143513203,safety,belt,1
implausible,familiar,39,4,belt,nova,FALSE,1,6.579251212010101,Mary bought the safety belt because it was a big improvement.,65,2,0.9621125143513203,safety,belt,0
plausible,familiar,32,4,funeral,depends,FALSE,1,6.5638555265321274,Sam went to the funeral home so that they would send a limousine.,69,2,0.9621125143513203,funeral,home,1
plausible,familiar,32,5,home,rise,FALSE,1,6.815639990074331,Sam went to the funeral home so that they would send a limousine.,69,2,0.9621125143513203,funeral,home,0
plausible,novel,14,5,surface,deserve,TRUE,1,6.472346294500901,The astronaut landed on the surface crater that had been rumored to exist.,72,2,0.9621125143513203,surface,crater,1
plausible,novel,14,6,crater,sexist,TRUE,1,6.75343791859778,The astronaut landed on the surface crater that had been rumored to exist.,72,2,0.9621125143513203,surface,crater,0
plausible,novel,20,3,ceiling,arrives,TRUE,1,6.928537818164665,Ricardo painted the ceiling supports while he ate his lunch.,73,2,0.9621125143513203,ceiling,supports,1
plausible,novel,20,4,supports,download,TRUE,1,6.878326468291325,Ricardo painted the ceiling supports while he ate his lunch.,73,2,0.9621125143513203,ceiling,supports,0
implausible,novel,23,5,plant,idiot,TRUE,1,6.706862336602747,The botany professor counted the plant parasites that she was studying.,79,2,0.9621125143513203,plant,parasites,1
implausible,novel,23,6,parasites,emphasise,TRUE,1,7.061334366910438,The botany professor counted the plant parasites that she was studying.,79,2,0.9621125143513203,plant,parasites,0
plausible,familiar,44,7,problem,follows,FALSE,1,6.248042874508429,The teacher was unable to understand the problem child in her class.,87,2,0.9621125143513203,problem,child,1
plausible,familiar,44,8,child,yours,TRUE,1,8.372398606513004,The teacher was unable to understand the problem child in her class.,87,2,0.9621125143513203,problem,child,0
implausible,novel,5,6,cafeteria,adventures,TRUE,1,6.849066282633458,The new principal talked to the cafeteria manager at the end of the school day.,91,2,0.9621125143513203,cafeteria,manager,1
implausible,novel,5,7,manager,absence,FALSE,1,6.56244409369372,The new principal talked to the cafeteria manager at the end of the school day.,91,2,0.9621125143513203,cafeteria,manager,0
plausible,novel,12,4,backpack,converge,FALSE,1,7.065613363597717,The camper removed the backpack label after leaving the store.,92,2,0.9621125143513203,backpack,label,1
plausible,novel,12,5,label,loves,FALSE,1,6.369900982828227,The camper removed the backpack label after leaving the store.,92,2,0.9621125143513203,backpack,label,0
plausible,familiar,28,6,mountain,achieved,FALSE,1,6.423246963533519,Jenny looked out on the huge mountain lion pacing in its cage.,93,2,0.9621125143513203,mountain,lion,1
plausible,familiar,28,7,lion,troy,FALSE,1,6.862757913051401,Jenny looked out on the huge mountain lion pacing in its cage.,93,2,0.9621125143513203,mountain,lion,0
implausible,novel,9,4,music,yours,FALSE,1,7.182352111885263,Veronica bumped into the music salesman at the front door.,101,2,0.9621125143513203,music,salesman,1
implausible,novel,9,5,salesman,motorway,FALSE,1,6.723832440821209,Veronica bumped into the music salesman at the front door.,101,2,0.9621125143513203,music,salesman,0
plausible,familiar,40,6,traffic,anymore,TRUE,1,7.22402480828583,Nora was held up by the traffic light near the new mall.,104,2,0.9621125143513203,traffic,light,1
plausible,familiar,40,7,light,yours,TRUE,1,6.588926477533519,Nora was held up by the traffic light near the new mall.,104,2,0.9621125143513203,traffic,light,0
implausible,familiar,25,4,dinner,forgot,TRUE,1,6.656726524178391,He boxed up the dinner table being shipped this week.,105,2,0.9621125143513203,dinner,table,1
implausible,familiar,25,5,table,worry,FALSE,1,6.483107351457199,He boxed up the dinner table being shipped this week.,105,2,0.9621125143513203,dinner,table,0
implausible,novel,19,3,school,itself,TRUE,1,6.635946555686647,Lucy met the school janitor on the first day of class.,107,2,0.9621125143513203,school,janitor,1
implausible,novel,19,4,janitor,utilise,TRUE,1,6.452048954437226,Lucy met the school janitor on the first day of class.,107,2,0.9621125143513203,school,janitor,0
plausible,familiar,46,7,weight,except,FALSE,1,6.7381524945959574,"It required a great effort, but the weight lifter finally won the competition.",111,2,0.9621125143513203,weight,lifter,1
plausible,familiar,46,8,lifter,mucous,TRUE,1,6.628041376179533,"It required a great effort, but the weight lifter finally won the competition.",111,2,0.9621125143513203,weight,lifter,0
plausible,novel,16,4,kitchen,anymore,FALSE,1,7.1459844677143876,The contractor admired the kitchen fixtures after the renovation.,116,2,0.9621125143513203,kitchen,fixtures,1
plausible,novel,16,5,fixtures,cinnamon,FALSE,1,6.6240652277998935,The contractor admired the kitchen fixtures after the renovation.,116,2,0.9621125143513203,kitchen,fixtures,0
plausible,familiar,36,5,family,except,TRUE,1,7.231287004327616,The new suburb had a family doctor with a degree from Harvard.,120,2,0.9621125143513203,family,doctor,1
plausible,familiar,36,6,doctor,rivers,FALSE,1,7.170119543449628,The new suburb had a family doctor with a degree from Harvard.,120,2,0.9621125143513203,family,doctor,0
implausible,novel,15,4,elephant,incurred,TRUE,1,6.834108738813838,The children attended the elephant shows that took place on Tuesday.,121,2,0.9621125143513203,elephant,shows,1
implausible,novel,15,5,shows,doubt,TRUE,1,6.748759547491679,The children attended the elephant shows that took place on Tuesday.,121,2,0.9621125143513203,elephant,shows,0
plausible,familiar,26,4,package,suppose,FALSE,1,6.6039438246004725,Jane carefully examined the package deal to make sure it was a bargain.,122,2,0.9621125143513203,package,deal,1
plausible,familiar,26,5,deal,holy,FALSE,1,7.228388451573604,Jane carefully examined the package deal to make sure it was a bargain.,122,2,0.9621125143513203,package,deal,0
plausible,novel,24,5,wiring,hereby,FALSE,1,6.68586094706836,The electrician laid out the wiring sketch at the construction site.,123,2,0.9621125143513203,wiring,sketch,1
plausible,novel,24,6,sketch,asylum,FALSE,1,7.026426808699636,The electrician laid out the wiring sketch at the construction site.,123,2,0.9621125143513203,wiring,sketch,0
implausible,familiar,29,5,office,happen,FALSE,1,6.63200177739563,David often sorted through his office work with a feeling of dread.,126,2,0.9621125143513203,office,work,1
implausible,familiar,29,6,work,yeah,TRUE,1,6.838405200847344,David often sorted through his office work with a feeling of dread.,126,2,0.9621125143513203,office,work,0
implausible,familiar,27,4,shower,afford,FALSE,1,6.739336627357174,Sam stood behind the shower curtain to be sure it was the right size.,128,2,0.9621125143513203,shower,curtain,1
implausible,familiar,27,5,curtain,innings,TRUE,1,6.650279048587422,Sam stood behind the shower curtain to be sure it was the right size.,128,2,0.9621125143513203,shower,curtain,0
implausible,novel,21,5,platoon,earners,TRUE,1,6.586171654854675,Captain Jones whispered to the platoon commander to discipline his men better.,134,2,0.9621125143513203,platoon,commander,1
implausible,novel,21,6,commander,disorders,TRUE,1,6.910750787961936,Captain Jones whispered to the platoon commander to discipline his men better.,134,2,0.9621125143513203,platoon,commander,0
plausible,familiar,30,5,nursery,conquer,FALSE,1,6.68586094706836,The teacher looked over the nursery rhyme before reciting it to the class.,135,2,0.9621125143513203,nursery,rhyme,1
plausible,familiar,30,6,rhyme,garde,FALSE,1,6.779921907472252,The teacher looked over the nursery rhyme before reciting it to the class.,135,2,0.9621125143513203,nursery,rhyme,0
plausible,novel,21,4,platoon,earners,TRUE,1,6.802394763324311,Captain Jones ordered the platoon commander to discipline his men better.,5,3,0.9158986175115207,platoon,commander,1
plausible,novel,21,5,commander,disorders,TRUE,1,7.038783541388542,Captain Jones ordered the platoon commander to discipline his men better.,5,3,0.9158986175115207,platoon,commander,0
plausible,novel,11,4,author,denied,FALSE,1,6.618738983517219,The editor liked the author conferences to take place on Tuesday.,8,3,0.9158986175115207,author,conferences,1
plausible,novel,11,5,conferences,helicopters,FALSE,1,7.484930283289661,The editor liked the author conferences to take place on Tuesday.,8,3,0.9158986175115207,author,conferences,0
implausible,familiar,40,4,traffic,anymore,TRUE,1,6.380122536899765,Nora slowed at the traffic light near the new mall.,10,3,0.9158986175115207,traffic,light,1
implausible,familiar,40,5,light,yours,TRUE,1,6.152732694704104,Nora slowed at the traffic light near the new mall.,10,3,0.9158986175115207,traffic,light,0
implausible,familiar,28,4,mountain,achieved,TRUE,1,7.048386408721883,Jenny heard the huge mountain lion pacing in its cage.,18,3,0.9158986175115207,mountain,lion,1
implausible,familiar,28,5,lion,troy,TRUE,1,6.428105272684596,Jenny heard the huge mountain lion pacing in its cage.,18,3,0.9158986175115207,mountain,lion,0
plausible,familiar,37,3,garbage,onwards,FALSE,1,6.697034247666484,Cindy smelled the garbage truck as it drove by her house.,21,3,0.9158986175115207,garbage,truck,1
plausible,familiar,37,4,truck,sixth,TRUE,1,6.582025138892826,Cindy smelled the garbage truck as it drove by her house.,21,3,0.9158986175115207,garbage,truck,0
plausible,novel,15,4,elephant,incurred,TRUE,1,7.098375638590786,The children loved the elephant shows that took place on Tuesday.,31,3,0.9158986175115207,elephant,shows,1
plausible,novel,15,5,shows,doubt,TRUE,1,6.7464121285733745,The children loved the elephant shows that took place on Tuesday.,31,3,0.9158986175115207,elephant,shows,0
implausible,familiar,36,6,family,except,FALSE,1,6.380122536899765,The new office complex had a family doctor with a degree from Harvard.,40,3,0.9158986175115207,family,doctor,1
implausible,familiar,36,7,doctor,rivers,FALSE,1,6.620073206530356,The new office complex had a family doctor with a degree from Harvard.,40,3,0.9158986175115207,family,doctor,0
implausible,familiar,26,5,package,suppose,TRUE,1,6.927557906278317,Jane listened carefully to the package deal to make sure it was a bargain.,42,3,0.9158986175115207,package,deal,1
implausible,familiar,26,6,deal,holy,FALSE,0,6.756932389247553,Jane listened carefully to the package deal to make sure it was a bargain.,42,3,0.9158986175115207,package,deal,0
plausible,familiar,41,5,station,figured,FALSE,1,6.697034247666484,Barbara went over to her station wagon and put some money in the parking meter.,47,3,0.9158986175115207,station,wagon,1
plausible,familiar,41,6,wagon,creep,TRUE,1,6.824373670043086,Barbara went over to her station wagon and put some money in the parking meter.,47,3,0.9158986175115207,station,wagon,0
plausible,familiar,47,5,security,download,TRUE,1,6.823286122355687,The local police worried about security risks at the airport on the holidays.,53,3,0.9158986175115207,security,risks,1
plausible,familiar,47,6,risks,ninth,FALSE,1,6.7912214627261855,The local police worried about security risks at the airport on the holidays.,53,3,0.9158986175115207,security,risks,0
plausible,familiar,45,6,talent,refers,TRUE,1,6.620073206530356,The anxious starlet didn't have a talent scout who would promote her.,55,3,0.9158986175115207,talent,scout,1
plausible,familiar,45,7,scout,scans,TRUE,1,7.01211529430638,The anxious starlet didn't have a talent scout who would promote her.,55,3,0.9158986175115207,talent,scout,0
implausible,novel,4,4,library,deserve,TRUE,1,6.345636360828596,George cleaned off the library table so that he could sort through the books.,56,3,0.9158986175115207,library,table,1
implausible,novel,4,5,table,worry,FALSE,1,6.672032945461067,George cleaned off the library table so that he could sort through the books.,56,3,0.9158986175115207,library,table,0
implausible,novel,14,5,surface,deserve,TRUE,1,6.54965074223381,The astronaut dropped into the surface crater that had been rumored to exist.,58,3,0.9158986175115207,surface,crater,1
implausible,novel,14,6,crater,sexist,TRUE,1,6.898714534329988,The astronaut dropped into the surface crater that had been rumored to exist.,58,3,0.9158986175115207,surface,crater,0
implausible,familiar,46,7,weight,except,FALSE,1,6.956545443151569,"It was a great event, but the weight lifter finally won the competition.",60,3,0.9158986175115207,weight,lifter,1
implausible,familiar,46,8,lifter,mucous,FALSE,1,7.154615356913663,"It was a great event, but the weight lifter finally won the competition.",60,3,0.9158986175115207,weight,lifter,0
implausible,novel,20,4,ceiling,arrives,FALSE,1,6.327936783729195,Ricardo leaned against the ceiling supports while he ate his lunch.,62,3,0.9158986175115207,ceiling,supports,1
implausible,novel,20,5,supports,download,TRUE,0,6.606650186198215,Ricardo leaned against the ceiling supports while he ate his lunch.,62,3,0.9158986175115207,ceiling,supports,0
plausible,familiar,27,4,shower,afford,FALSE,1,6.835184586147301,Sam tried out the shower curtain to be sure it was the right size.,64,3,0.9158986175115207,shower,curtain,1
plausible,familiar,27,5,curtain,innings,FALSE,1,6.928537818164665,Sam tried out the shower curtain to be sure it was the right size.,64,3,0.9158986175115207,shower,curtain,0
implausible,familiar,30,5,nursery,conquer,FALSE,1,6.398594934535208,The teacher read over the nursery rhyme before reciting it to the class.,65,3,0.9158986175115207,nursery,rhyme,1
implausible,familiar,30,6,rhyme,garde,TRUE,1,6.363028103540465,The teacher read over the nursery rhyme before reciting it to the class.,65,3,0.9158986175115207,nursery,rhyme,0
plausible,familiar,43,7,concert,exports,FALSE,1,7.787796878181171,Jane looked forward to going to the concert hall after it had been remodeled.,70,3,0.9158986175115207,concert,hall,1
plausible,familiar,43,8,hall,sake,TRUE,1,6.577861357721047,Jane looked forward to going to the concert hall after it had been remodeled.,70,3,0.9158986175115207,concert,hall,0
implausible,novel,16,4,kitchen,anymore,FALSE,1,6.733401891837359,The contractor ordered the kitchen fixtures after the renovation.,72,3,0.9158986175115207,kitchen,fixtures,1
implausible,novel,16,5,fixtures,cinnamon,TRUE,1,6.492239835020471,The contractor ordered the kitchen fixtures after the renovation.,72,3,0.9158986175115207,kitchen,fixtures,0
implausible,familiar,42,2,taxi,heal,FALSE,1,6.4457198193855785,The new taxi driver installed the license plate for the cab he just bought.,73,3,0.9158986175115207,taxi,driver,1
implausible,familiar,42,3,driver,stupid,FALSE,1,6.380122536899765,The new taxi driver installed the license plate for the cab he just bought.,73,3,0.9158986175115207,taxi,driver,0
implausible,familiar,38,3,laundry,prefers,FALSE,1,6.672032945461067,John opened the laundry basket and started to throw his dirty clothes in it.,79,3,0.9158986175115207,laundry,basket,1
implausible,familiar,38,4,basket,exodus,TRUE,1,6.565264970035361,John opened the laundry basket and started to throw his dirty clothes in it.,79,3,0.9158986175115207,laundry,basket,0
plausible,familiar,29,4,office,happen,FALSE,1,6.447305862541213,David often approached his office work with a feeling of dread.,82,3,0.9158986175115207,office,work,1
plausible,familiar,29,5,work,yeah,FALSE,1,6.492239835020471,David often approached his office work with a feeling of dread.,82,3,0.9158986175115207,office,work,0
plausible,familiar,39,5,safety,define,FALSE,1,6.946975992135418,Mary was reassured about the safety belt because it was a big improvement.,83,3,0.9158986175115207,safety,belt,1
plausible,familiar,39,6,belt,nova,FALSE,1,7.192182058713246,Mary was reassured about the safety belt because it was a big improvement.,83,3,0.9158986175115207,safety,belt,0
plausible,novel,7,4,elevator,exceeded,FALSE,1,6.966024187106113,The maid caught the elevator mechanic who was goofing off.,89,3,0.9158986175115207,elevator,mechanic,1
plausible,novel,7,5,mechanic,proverbs,TRUE,1,6.63200177739563,The maid caught the elevator mechanic who was goofing off.,89,3,0.9158986175115207,elevator,mechanic,0
implausible,familiar,44,7,problem,follows,TRUE,1,6.985641817639208,The teacher was unable to scold the problem child in her class.,90,3,0.9158986175115207,problem,child,1
implausible,familiar,44,8,child,yours,FALSE,1,6.522092798170152,The teacher was unable to scold the problem child in her class.,90,3,0.9158986175115207,problem,child,0
plausible,familiar,25,5,dinner,forgot,TRUE,1,6.54965074223381,He looked forward to the dinner table being shipped this week.,91,3,0.9158986175115207,dinner,table,1
plausible,familiar,25,6,table,worry,TRUE,1,7.193685818395112,He looked forward to the dinner table being shipped this week.,91,3,0.9158986175115207,dinner,table,0
plausible,familiar,35,5,ballet,misuse,FALSE,1,6.380122536899765,The last performance of the ballet dancer was warmly applauded.,93,3,0.9158986175115207,ballet,dancer,1
plausible,familiar,35,6,dancer,repeal,TRUE,1,6.731018100482083,The last performance of the ballet dancer was warmly applauded.,93,3,0.9158986175115207,ballet,dancer,0
plausible,familiar,31,6,pillow,derive,FALSE,1,6.411818267709897,The kids decided to move the pillow fight when the video was over.,96,3,0.9158986175115207,pillow,fight,1
plausible,familiar,31,7,fight,terms,FALSE,1,6.779921907472252,The kids decided to move the pillow fight when the video was over.,96,3,0.9158986175115207,pillow,fight,0
implausible,familiar,32,3,funeral,depends,TRUE,1,6.536691597591305,Sam phoned the funeral home so that they would send a limousine.,100,3,0.9158986175115207,funeral,home,1
implausible,familiar,32,4,home,rise,FALSE,1,6.4457198193855785,Sam phoned the funeral home so that they would send a limousine.,100,3,0.9158986175115207,funeral,home,0
plausible,novel,17,4,bathroom,treating,FALSE,1,6.672032945461067,The visitors dirtied the bathroom towels on the first day of their stay.,104,3,0.9158986175115207,bathroom,towels,1
plausible,novel,17,5,towels,repeal,FALSE,1,6.428105272684596,The visitors dirtied the bathroom towels on the first day of their stay.,104,3,0.9158986175115207,bathroom,towels,0
implausible,novel,12,4,backpack,converge,TRUE,1,6.646390514847729,The camper read the backpack label after leaving the store.,106,3,0.9158986175115207,backpack,label,1
implausible,novel,12,5,label,loves,FALSE,1,6.917705609835305,The camper read the backpack label after leaving the store.,106,3,0.9158986175115207,backpack,label,0
implausible,novel,8,3,homework,utilized,FALSE,1,6.9930151229329605,Lindsay counted her homework essays before going to bed.,111,3,0.9158986175115207,homework,essays,1
implausible,novel,8,4,essays,beasts,FALSE,1,6.7226297948554485,Lindsay counted her homework essays before going to bed.,111,3,0.9158986175115207,homework,essays,0
implausible,novel,24,4,wiring,hereby,FALSE,1,6.461468176353717,The electrician drew the wiring sketch at the construction site.,113,3,0.9158986175115207,wiring,sketch,1
implausible,novel,24,5,sketch,asylum,TRUE,1,6.697034247666484,The electrician drew the wiring sketch at the construction site.,113,3,0.9158986175115207,wiring,sketch,0
plausible,novel,13,4,cabinet,warfare,TRUE,1,6.877296071497429,The dealer polished the cabinet drawers before making the sale.,117,3,0.9158986175115207,cabinet,drawers,1
plausible,novel,13,5,drawers,infancy,TRUE,1,6.593044534142437,The dealer polished the cabinet drawers before making the sale.,117,3,0.9158986175115207,cabinet,drawers,0
plausible,novel,19,4,school,itself,TRUE,1,6.476972362889683,Lucy walked by the school janitor on the first day of class.,118,3,0.9158986175115207,school,janitor,1
plausible,novel,19,5,janitor,utilise,TRUE,1,6.733401891837359,Lucy walked by the school janitor on the first day of class.,118,3,0.9158986175115207,school,janitor,0
plausible,novel,3,4,party,shall,FALSE,1,7.114769448366463,Kim heard about the party outfit that her mother had chosen.,119,3,0.9158986175115207,party,outfit,1
plausible,novel,3,5,outfit,brooks,FALSE,1,7.31986492980897,Kim heard about the party outfit that her mother had chosen.,119,3,0.9158986175115207,party,outfit,0
implausible,familiar,34,3,season,anyone,TRUE,1,6.813444599510896,Arnie bought the season tickets though they cost more than last year.,120,3,0.9158986175115207,season,tickets,1
implausible,familiar,34,4,tickets,applies,TRUE,1,6.779921907472252,Arnie bought the season tickets though they cost more than last year.,120,3,0.9158986175115207,season,tickets,0
implausible,novel,22,3,pencil,admire,TRUE,1,6.721425700790643,Larry emptied the pencil shavings in the wastebasket.,121,3,0.9158986175115207,pencil,shavings,1
implausible,novel,22,4,shavings,droughts,FALSE,1,6.659293919683638,Larry emptied the pencil shavings in the wastebasket.,121,3,0.9158986175115207,pencil,shavings,0
implausible,familiar,48,3,service,anymore,FALSE,0,6.633318433280377,Gordon calculated the service charges at the local mortgage company.,122,3,0.9158986175115207,service,charges,1
implausible,familiar,48,4,charges,breathe,FALSE,1,6.813444599510896,Gordon calculated the service charges at the local mortgage company.,122,3,0.9158986175115207,service,charges,0
plausible,novel,23,5,plant,idiot,TRUE,1,6.47543271670409,The botany professor fed the plant parasites that she was studying.,123,3,0.9158986175115207,plant,parasites,1
plausible,novel,23,6,parasites,emphasise,FALSE,1,6.733401891837359,The botany professor fed the plant parasites that she was studying.,123,3,0.9158986175115207,plant,parasites,0
plausible,familiar,33,4,savings,extends,TRUE,1,7.52294091807237,John counted on his savings bank because of the bad economy.,130,3,0.9158986175115207,savings,bank,1
plausible,familiar,33,5,bank,okay,FALSE,1,7.272398392570047,John counted on his savings bank because of the bad economy.,130,3,0.9158986175115207,savings,bank,0
plausible,familiar,26,4,package,suppose,FALSE,1,6.658011045870748,Jane carefully examined the package deal to make sure it was a bargain.,8,5,0.9397590361445783,package,deal,1
plausible,familiar,26,5,deal,holy,TRUE,1,7.362010551259734,Jane carefully examined the package deal to make sure it was a bargain.,8,5,0.9397590361445783,package,deal,0
plausible,novel,12,4,backpack,converge,FALSE,1,6.674561391814426,The camper removed the backpack label after leaving the store.,14,5,0.9397590361445783,backpack,label,1
plausible,novel,12,5,label,loves,TRUE,1,6.647688373563329,The camper removed the backpack label after leaving the store.,14,5,0.9397590361445783,backpack,label,0
plausible,novel,22,3,pencil,admire,TRUE,1,7.011213987350367,Larry dropped the pencil shavings in the wastebasket.,18,5,0.9397590361445783,pencil,shavings,1
plausible,novel,22,4,shavings,droughts,TRUE,1,6.5102583405231496,Larry dropped the pencil shavings in the wastebasket.,18,5,0.9397590361445783,pencil,shavings,0
plausible,familiar,44,7,problem,follows,FALSE,1,7.45182223652793,The teacher was unable to understand the problem child in her class.,20,5,0.9397590361445783,problem,child,1
plausible,familiar,44,8,child,yours,TRUE,1,7.614805364711073,The teacher was unable to understand the problem child in her class.,20,5,0.9397590361445783,problem,child,0
plausible,familiar,48,5,service,anymore,FALSE,1,6.915723448631314,Gordon was annoyed by the service charges at the local mortgage company.,22,5,0.9397590361445783,service,charges,1
plausible,familiar,48,6,charges,breathe,TRUE,1,7.047517221357296,Gordon was annoyed by the service charges at the local mortgage company.,22,5,0.9397590361445783,service,charges,0
implausible,novel,21,5,platoon,earners,FALSE,1,7.172424577124845,Captain Jones whispered to the platoon commander to discipline his men better.,25,5,0.9397590361445783,platoon,commander,1
implausible,novel,21,6,commander,disorders,FALSE,1,7.104144092987527,Captain Jones whispered to the platoon commander to discipline his men better.,25,5,0.9397590361445783,platoon,commander,0
plausible,novel,20,3,ceiling,arrives,FALSE,1,6.606650186198215,Ricardo painted the ceiling supports while he ate his lunch.,28,5,0.9397590361445783,ceiling,supports,1
plausible,novel,20,4,supports,download,FALSE,1,6.650279048587422,Ricardo painted the ceiling supports while he ate his lunch.,28,5,0.9397590361445783,ceiling,supports,0
plausible,familiar,30,5,nursery,conquer,TRUE,1,6.4692503167957724,The teacher looked over the nursery rhyme before reciting it to the class.,29,5,0.9397590361445783,nursery,rhyme,1
plausible,familiar,30,6,rhyme,garde,TRUE,1,7.527793987721444,The teacher looked over the nursery rhyme before reciting it to the class.,29,5,0.9397590361445783,nursery,rhyme,0
plausible,novel,2,5,muffin,entail,TRUE,1,6.490723534502507,The hungry raccoon ate the muffin container while going through the garbage.,33,5,0.9397590361445783,muffin,container,1
plausible,novel,2,6,container,undermine,FALSE,1,6.371611847231857,The hungry raccoon ate the muffin container while going through the garbage.,33,5,0.9397590361445783,muffin,container,0
implausible,familiar,37,3,garbage,onwards,FALSE,1,6.54965074223381,Cindy heard the garbage truck as it drove by her house.,38,5,0.9397590361445783,garbage,truck,1
implausible,familiar,37,4,truck,sixth,TRUE,1,6.920671504248683,Cindy heard the garbage truck as it drove by her house.,38,5,0.9397590361445783,garbage,truck,0
implausible,familiar,33,5,savings,extends,TRUE,1,7.44600149832412,John did business with his savings bank because of the bad economy.,39,5,0.9397590361445783,savings,bank,1
implausible,familiar,33,6,bank,okay,TRUE,1,7.037905963447182,John did business with his savings bank because of the bad economy.,39,5,0.9397590361445783,savings,bank,0
implausible,familiar,43,6,concert,exports,TRUE,1,7.117205503164344,Jane looked forward to visiting the concert hall after it had been remodeled.,40,5,0.9397590361445783,concert,hall,1
implausible,familiar,43,7,hall,sake,FALSE,1,8.271292652979412,Jane looked forward to visiting the concert hall after it had been remodeled.,40,5,0.9397590361445783,concert,hall,0
plausible,familiar,46,7,weight,except,TRUE,1,7.044032897274685,"It required a great effort, but the weight lifter finally won the competition.",42,5,0.9397590361445783,weight,lifter,1
plausible,familiar,46,8,lifter,mucous,FALSE,1,7.246368080102461,"It required a great effort, but the weight lifter finally won the competition.",42,5,0.9397590361445783,weight,lifter,0
implausible,novel,3,3,party,shall,FALSE,1,6.68586094706836,Kim modeled the party outfit that her mother had chosen.,53,5,0.9397590361445783,party,outfit,1
implausible,novel,3,4,outfit,brooks,FALSE,1,6.790097235513905,Kim modeled the party outfit that her mother had chosen.,53,5,0.9397590361445783,party,outfit,0
implausible,familiar,41,5,station,figured,FALSE,1,7.332369205929062,Barbara went over in her station wagon and put some money in the parking meter.,54,5,0.9397590361445783,station,wagon,1
implausible,familiar,41,6,wagon,creep,FALSE,0,6.960347729101308,Barbara went over in her station wagon and put some money in the parking meter.,54,5,0.9397590361445783,station,wagon,0
implausible,familiar,31,5,pillow,derive,FALSE,1,6.429719478039138,The kids started having the pillow fight when the video was over.,59,5,0.9397590361445783,pillow,fight,1
implausible,familiar,31,6,fight,terms,FALSE,1,6.583409222158765,The kids started having the pillow fight when the video was over.,59,5,0.9397590361445783,pillow,fight,0
implausible,familiar,25,4,dinner,forgot,FALSE,1,6.375024819828097,He boxed up the dinner table being shipped this week.,63,5,0.9397590361445783,dinner,table,1
implausible,familiar,25,5,table,worry,TRUE,1,6.949856455000773,He boxed up the dinner table being shipped this week.,63,5,0.9397590361445783,dinner,table,0
implausible,familiar,39,3,safety,define,FALSE,1,7.220373836723949,Mary bought the safety belt because it was a big improvement.,65,5,0.9397590361445783,safety,belt,1
implausible,familiar,39,4,belt,nova,TRUE,1,6.806829360392176,Mary bought the safety belt because it was a big improvement.,65,5,0.9397590361445783,safety,belt,0
plausible,novel,16,4,kitchen,anymore,TRUE,1,6.699500340161678,The contractor admired the kitchen fixtures after the renovation.,67,5,0.9397590361445783,kitchen,fixtures,1
plausible,novel,16,5,fixtures,cinnamon,FALSE,1,6.695798917058491,The contractor admired the kitchen fixtures after the renovation.,67,5,0.9397590361445783,kitchen,fixtures,0
implausible,familiar,45,6,talent,refers,FALSE,1,7.256297239690681,The anxious starlet hadn't met a talent scout who would promote her.,68,5,0.9397590361445783,talent,scout,1
implausible,familiar,45,7,scout,scans,FALSE,1,6.699500340161678,The anxious starlet hadn't met a talent scout who would promote her.,68,5,0.9397590361445783,talent,scout,0
implausible,novel,11,4,author,denied,TRUE,0,7.277938572945661,The editor planned the author conferences to take place on Tuesday.,69,5,0.9397590361445783,author,conferences,1
implausible,novel,11,5,conferences,helicopters,TRUE,1,7.105786129481271,The editor planned the author conferences to take place on Tuesday.,69,5,0.9397590361445783,author,conferences,0
plausible,familiar,40,6,traffic,anymore,FALSE,1,6.331501849893691,Nora was held up by the traffic light near the new mall.,71,5,0.9397590361445783,traffic,light,1
plausible,familiar,40,7,light,yours,TRUE,1,6.620073206530356,Nora was held up by the traffic light near the new mall.,71,5,0.9397590361445783,traffic,light,0
implausible,novel,15,4,elephant,incurred,FALSE,0,6.52649485957079,The children attended the elephant shows that took place on Tuesday.,73,5,0.9397590361445783,elephant,shows,1
implausible,novel,15,5,shows,doubt,FALSE,1,6.295266001439646,The children attended the elephant shows that took place on Tuesday.,73,5,0.9397590361445783,elephant,shows,0
plausible,familiar,42,2,taxi,heal,TRUE,1,6.643789733147672,The new taxi driver needed the license plate for the cab he just bought.,75,5,0.9397590361445783,taxi,driver,1
plausible,familiar,42,3,driver,stupid,FALSE,1,6.428105272684596,The new taxi driver needed the license plate for the cab he just bought.,75,5,0.9397590361445783,taxi,driver,0
plausible,familiar,28,6,mountain,achieved,FALSE,1,6.431331081933479,Jenny looked out on the huge mountain lion pacing in its cage.,82,5,0.9397590361445783,mountain,lion,1
plausible,familiar,28,7,lion,troy,FALSE,1,7.236339342754344,Jenny looked out on the huge mountain lion pacing in its cage.,82,5,0.9397590361445783,mountain,lion,0
implausible,novel,13,4,cabinet,warfare,FALSE,0,7.541683099882111,The dealer counted the cabinet drawers before making the sale.,84,5,0.9397590361445783,cabinet,drawers,1
implausible,novel,13,5,drawers,infancy,TRUE,1,6.669498089857879,The dealer counted the cabinet drawers before making the sale.,84,5,0.9397590361445783,cabinet,drawers,0
plausible,novel,6,4,casserole,evaluates,TRUE,1,7.444833273892193,Mr. Randolph stirred the casserole spices into the pot.,92,5,0.9397590361445783,casserole,spices,1
plausible,novel,6,5,spices,expire,TRUE,1,7.3277805384216315,Mr. Randolph stirred the casserole spices into the pot.,92,5,0.9397590361445783,casserole,spices,0
plausible,novel,24,5,wiring,hereby,TRUE,1,6.728628613084702,The electrician laid out the wiring sketch at the construction site.,98,5,0.9397590361445783,wiring,sketch,1
plausible,novel,24,6,sketch,asylum,FALSE,1,6.706862336602747,The electrician laid out the wiring sketch at the construction site.,98,5,0.9397590361445783,wiring,sketch,0
plausible,novel,10,4,automobile,advocating,TRUE,1,6.957497370876951,The mechanic repaired the automobile radio on his lunch break.,100,5,0.9397590361445783,automobile,radio,1
plausible,novel,10,5,radio,favor,TRUE,0,7.610357618312838,The mechanic repaired the automobile radio on his lunch break.,100,5,0.9397590361445783,automobile,radio,0
plausible,familiar,38,4,laundry,prefers,FALSE,1,6.352629396319567,John went to the laundry basket and started to throw his dirty clothes in it.,101,5,0.9397590361445783,laundry,basket,1
plausible,familiar,38,5,basket,exodus,TRUE,1,6.795705775173514,John went to the laundry basket and started to throw his dirty clothes in it.,101,5,0.9397590361445783,laundry,basket,0
implausible,novel,7,4,elevator,exceeded,FALSE,1,7.052721049232323,The maid scolded the elevator mechanic who was goofing off.,102,5,0.9397590361445783,elevator,mechanic,1
implausible,novel,7,5,mechanic,proverbs,FALSE,1,6.490723534502507,The maid scolded the elevator mechanic who was goofing off.,102,5,0.9397590361445783,elevator,mechanic,0
implausible,familiar,35,5,ballet,misuse,TRUE,0,7.0707241072602764,The graceful leap of the ballet dancer was warmly applauded.,103,5,0.9397590361445783,ballet,dancer,1
implausible,familiar,35,6,dancer,repeal,TRUE,1,6.706862336602747,The graceful leap of the ballet dancer was warmly applauded.,103,5,0.9397590361445783,ballet,dancer,0
plausible,novel,14,5,surface,deserve,TRUE,1,6.410174881966167,The astronaut landed on the surface crater that had been rumored to exist.,106,5,0.9397590361445783,surface,crater,1
plausible,novel,14,6,crater,sexist,FALSE,1,6.411818267709897,The astronaut landed on the surface crater that had been rumored to exist.,106,5,0.9397590361445783,surface,crater,0
plausible,familiar,36,5,family,except,TRUE,1,7.028201432058005,The new suburb had a family doctor with a degree from Harvard.,114,5,0.9397590361445783,family,doctor,1
plausible,familiar,36,6,doctor,rivers,FALSE,1,7.170888478512505,The new suburb had a family doctor with a degree from Harvard.,114,5,0.9397590361445783,family,doctor,0
implausible,novel,19,3,school,itself,TRUE,1,6.741700694652055,Lucy met the school janitor on the first day of class.,118,5,0.9397590361445783,school,janitor,1
implausible,novel,19,4,janitor,utilise,TRUE,1,7.044032897274685,Lucy met the school janitor on the first day of class.,118,5,0.9397590361445783,school,janitor,0
plausible,familiar,34,3,season,anyone,TRUE,1,7.4798641311650265,Arnie enjoyed the season tickets though they cost more than last year.,119,5,0.9397590361445783,season,tickets,1
plausible,familiar,34,4,tickets,applies,TRUE,1,6.967909201801884,Arnie enjoyed the season tickets though they cost more than last year.,119,5,0.9397590361445783,season,tickets,0
implausible,novel,23,5,plant,idiot,TRUE,1,6.782192056006791,The botany professor counted the plant parasites that she was studying.,121,5,0.9397590361445783,plant,parasites,1
implausible,novel,23,6,parasites,emphasise,TRUE,1,7.262628600974241,The botany professor counted the plant parasites that she was studying.,121,5,0.9397590361445783,plant,parasites,0
implausible,familiar,29,5,office,happen,TRUE,1,6.565264970035361,David often sorted through his office work with a feeling of dread.,124,5,0.9397590361445783,office,work,1
implausible,familiar,29,6,work,yeah,FALSE,1,7.175489713624222,David often sorted through his office work with a feeling of dread.,124,5,0.9397590361445783,office,work,0
plausible,familiar,32,4,funeral,depends,FALSE,1,6.584791392385716,Sam went to the funeral home so that they would send a limousine.,131,5,0.9397590361445783,funeral,home,1
plausible,familiar,32,5,home,rise,FALSE,1,6.643789733147672,Sam went to the funeral home so that they would send a limousine.,131,5,0.9397590361445783,funeral,home,0
implausible,familiar,27,4,shower,afford,TRUE,1,7.0587581525186645,Sam stood behind the shower curtain to be sure it was the right size.,133,5,0.9397590361445783,shower,curtain,1
implausible,familiar,27,5,curtain,innings,FALSE,1,6.645090969505644,Sam stood behind the shower curtain to be sure it was the right size.,133,5,0.9397590361445783,shower,curtain,0
implausible,novel,17,4,bathroom,treating,TRUE,1,6.725033642166843,The visitors folded the bathroom towels on the first day of their stay.,134,5,0.9397590361445783,bathroom,towels,1
implausible,novel,17,5,towels,repeal,TRUE,1,6.39024066706535,The visitors folded the bathroom towels on the first day of their stay.,134,5,0.9397590361445783,bathroom,towels,0
implausible,familiar,48,3,service,anymore,FALSE,1,7.155396301896734,Gordon calculated the service charges at the local mortgage company.,4,7,0.9182027649769585,service,charges,1
implausible,familiar,48,4,charges,breathe,FALSE,1,6.645090969505644,Gordon calculated the service charges at the local mortgage company.,4,7,0.9182027649769585,service,charges,0
plausible,novel,19,4,school,itself,FALSE,1,6.48768401848461,Lucy walked by the school janitor on the first day of class.,7,7,0.9182027649769585,school,janitor,1
plausible,novel,19,5,janitor,utilise,FALSE,1,7.290292882446597,Lucy walked by the school janitor on the first day of class.,7,7,0.9182027649769585,school,janitor,0
plausible,familiar,45,6,talent,refers,TRUE,1,6.104793232414985,The anxious starlet didn't have a talent scout who would promote her.,8,7,0.9182027649769585,talent,scout,1
plausible,familiar,45,7,scout,scans,FALSE,1,5.860786223465865,The anxious starlet didn't have a talent scout who would promote her.,8,7,0.9182027649769585,talent,scout,0
implausible,familiar,46,7,weight,except,TRUE,1,7.085901464365611,"It was a great event, but the weight lifter finally won the competition.",11,7,0.9182027649769585,weight,lifter,1
implausible,familiar,46,8,lifter,mucous,FALSE,1,6.776506992372183,"It was a great event, but the weight lifter finally won the competition.",11,7,0.9182027649769585,weight,lifter,0
implausible,familiar,30,5,nursery,conquer,TRUE,1,7.052721049232323,The teacher read over the nursery rhyme before reciting it to the class.,15,7,0.9182027649769585,nursery,rhyme,1
implausible,familiar,30,6,rhyme,garde,FALSE,1,6.672032945461067,The teacher read over the nursery rhyme before reciting it to the class.,15,7,0.9182027649769585,nursery,rhyme,0
implausible,familiar,40,4,traffic,anymore,FALSE,1,6.505784060128229,Nora slowed at the traffic light near the new mall.,16,7,0.9182027649769585,traffic,light,1
implausible,familiar,40,5,light,yours,FALSE,1,6.212606095751519,Nora slowed at the traffic light near the new mall.,16,7,0.9182027649769585,traffic,light,0
implausible,novel,8,3,homework,utilized,TRUE,1,6.602587892189336,Lindsay counted her homework essays before going to bed.,18,7,0.9182027649769585,homework,essays,1
implausible,novel,8,4,essays,beasts,TRUE,1,6.626717749249025,Lindsay counted her homework essays before going to bed.,18,7,0.9182027649769585,homework,essays,0
plausible,novel,7,4,elevator,exceeded,TRUE,1,7.10002716662926,The maid caught the elevator mechanic who was goofing off.,23,7,0.9182027649769585,elevator,mechanic,1
plausible,novel,7,5,mechanic,proverbs,FALSE,1,6.238324625039508,The maid caught the elevator mechanic who was goofing off.,23,7,0.9182027649769585,elevator,mechanic,0
plausible,familiar,29,4,office,happen,FALSE,1,6.331501849893691,David often approached his office work with a feeling of dread.,25,7,0.9182027649769585,office,work,1
plausible,familiar,29,5,work,yeah,TRUE,1,6.504288173536645,David often approached his office work with a feeling of dread.,25,7,0.9182027649769585,office,work,0
implausible,familiar,38,3,laundry,prefers,FALSE,1,6.380122536899765,John opened the laundry basket and started to throw his dirty clothes in it.,36,7,0.9182027649769585,laundry,basket,1
implausible,familiar,38,4,basket,exodus,FALSE,1,5.966146739123692,John opened the laundry basket and started to throw his dirty clothes in it.,36,7,0.9182027649769585,laundry,basket,0
plausible,novel,3,4,party,shall,TRUE,1,6.881411303642535,Kim heard about the party outfit that her mother had chosen.,37,7,0.9182027649769585,party,outfit,1
plausible,novel,3,5,outfit,brooks,FALSE,0,6.827629234502852,Kim heard about the party outfit that her mother had chosen.,37,7,0.9182027649769585,party,outfit,0
implausible,familiar,34,3,season,anyone,TRUE,1,6.879355804460439,Arnie bought the season tickets though they cost more than last year.,41,7,0.9182027649769585,season,tickets,1
implausible,familiar,34,4,tickets,applies,FALSE,0,6.331501849893691,Arnie bought the season tickets though they cost more than last year.,41,7,0.9182027649769585,season,tickets,0
plausible,familiar,37,3,garbage,onwards,FALSE,1,6.401917196727186,Cindy smelled the garbage truck as it drove by her house.,43,7,0.9182027649769585,garbage,truck,1
plausible,familiar,37,4,truck,sixth,TRUE,0,6.982862751468942,Cindy smelled the garbage truck as it drove by her house.,43,7,0.9182027649769585,garbage,truck,0
plausible,familiar,41,5,station,figured,FALSE,1,6.519147287940395,Barbara went over to her station wagon and put some money in the parking meter.,45,7,0.9182027649769585,station,wagon,1
plausible,familiar,41,6,wagon,creep,FALSE,1,6.380122536899765,Barbara went over to her station wagon and put some money in the parking meter.,45,7,0.9182027649769585,station,wagon,0
plausible,novel,15,4,elephant,incurred,FALSE,1,6.45833828334479,The children loved the elephant shows that took place on Tuesday.,46,7,0.9182027649769585,elephant,shows,1
plausible,novel,15,5,shows,doubt,TRUE,1,6.945051063725834,The children loved the elephant shows that took place on Tuesday.,46,7,0.9182027649769585,elephant,shows,0
plausible,novel,13,4,cabinet,warfare,TRUE,1,7.422971251049421,The dealer polished the cabinet drawers before making the sale.,50,7,0.9182027649769585,cabinet,drawers,1
plausible,novel,13,5,drawers,infancy,TRUE,1,7.470224135899966,The dealer polished the cabinet drawers before making the sale.,50,7,0.9182027649769585,cabinet,drawers,0
implausible,familiar,36,6,family,except,TRUE,1,6.548219102762372,The new office complex had a family doctor with a degree from Harvard.,53,7,0.9182027649769585,family,doctor,1
implausible,familiar,36,7,doctor,rivers,TRUE,1,6.7464121285733745,The new office complex had a family doctor with a degree from Harvard.,53,7,0.9182027649769585,family,doctor,0
implausible,familiar,42,2,taxi,heal,FALSE,1,6.464588303689961,The new taxi driver installed the license plate for the cab he just bought.,57,7,0.9182027649769585,taxi,driver,1
implausible,familiar,42,3,driver,stupid,TRUE,0,6.432940092739179,The new taxi driver installed the license plate for the cab he just bought.,57,7,0.9182027649769585,taxi,driver,0
plausible,familiar,39,5,safety,define,FALSE,1,6.625392368007956,Mary was reassured about the safety belt because it was a big improvement.,58,7,0.9182027649769585,safety,belt,1
plausible,familiar,39,6,belt,nova,FALSE,1,6.22455842927536,Mary was reassured about the safety belt because it was a big improvement.,58,7,0.9182027649769585,safety,belt,0
plausible,familiar,31,6,pillow,derive,FALSE,1,6.246106765481563,The kids decided to move the pillow fight when the video was over.,61,7,0.9182027649769585,pillow,fight,1
plausible,familiar,31,7,fight,terms,TRUE,0,6.7357800142423265,The kids decided to move the pillow fight when the video was over.,61,7,0.9182027649769585,pillow,fight,0
plausible,familiar,43,7,concert,exports,TRUE,1,6.812345094177479,Jane looked forward to going to the concert hall after it had been remodeled.,69,7,0.9182027649769585,concert,hall,1
plausible,familiar,43,8,hall,sake,TRUE,1,6.942156705699469,Jane looked forward to going to the concert hall after it had been remodeled.,69,7,0.9182027649769585,concert,hall,0
plausible,familiar,25,5,dinner,forgot,FALSE,1,6.26530121273771,He looked forward to the dinner table being shipped this week.,72,7,0.9182027649769585,dinner,table,1
plausible,familiar,25,6,table,worry,TRUE,1,6.502790045915623,He looked forward to the dinner table being shipped this week.,72,7,0.9182027649769585,dinner,table,0
plausible,novel,17,4,bathroom,treating,FALSE,1,6.391917113392602,The visitors dirtied the bathroom towels on the first day of their stay.,73,7,0.9182027649769585,bathroom,towels,1
plausible,novel,17,5,towels,repeal,TRUE,1,6.805722553416985,The visitors dirtied the bathroom towels on the first day of their stay.,73,7,0.9182027649769585,bathroom,towels,0
implausible,novel,12,4,backpack,converge,FALSE,1,7.203405521083095,The camper read the backpack label after leaving the store.,75,7,0.9182027649769585,backpack,label,1
implausible,novel,12,5,label,loves,FALSE,1,6.403574197934815,The camper read the backpack label after leaving the store.,75,7,0.9182027649769585,backpack,label,0
plausible,novel,23,5,plant,idiot,TRUE,1,6.570882962339584,The botany professor fed the plant parasites that she was studying.,81,7,0.9182027649769585,plant,parasites,1
plausible,novel,23,6,parasites,emphasise,FALSE,1,6.923628628138427,The botany professor fed the plant parasites that she was studying.,81,7,0.9182027649769585,plant,parasites,0
implausible,novel,16,4,kitchen,anymore,TRUE,1,6.502790045915623,The contractor ordered the kitchen fixtures after the renovation.,83,7,0.9182027649769585,kitchen,fixtures,1
implausible,novel,16,5,fixtures,cinnamon,FALSE,1,6.455198563340122,The contractor ordered the kitchen fixtures after the renovation.,83,7,0.9182027649769585,kitchen,fixtures,0
implausible,novel,14,5,surface,deserve,TRUE,1,6.525029657843462,The astronaut dropped into the surface crater that had been rumored to exist.,85,7,0.9182027649769585,surface,crater,1
implausible,novel,14,6,crater,sexist,TRUE,1,6.860663671448287,The astronaut dropped into the surface crater that had been rumored to exist.,85,7,0.9182027649769585,surface,crater,0
implausible,familiar,32,3,funeral,depends,TRUE,0,6.828712071641684,Sam phoned the funeral home so that they would send a limousine.,94,7,0.9182027649769585,funeral,home,1
implausible,familiar,32,4,home,rise,TRUE,1,6.928537818164665,Sam phoned the funeral home so that they would send a limousine.,94,7,0.9182027649769585,funeral,home,0
implausible,novel,20,4,ceiling,arrives,TRUE,1,6.444131256700441,Ricardo leaned against the ceiling supports while he ate his lunch.,98,7,0.9182027649769585,ceiling,supports,1
implausible,novel,20,5,supports,download,FALSE,1,6.698268054115413,Ricardo leaned against the ceiling supports while he ate his lunch.,98,7,0.9182027649769585,ceiling,supports,0
implausible,novel,24,4,wiring,hereby,FALSE,1,6.222576268071369,The electrician drew the wiring sketch at the construction site.,100,7,0.9182027649769585,wiring,sketch,1
implausible,novel,24,5,sketch,asylum,TRUE,1,6.648984550024776,The electrician drew the wiring sketch at the construction site.,100,7,0.9182027649769585,wiring,sketch,0
plausible,familiar,47,5,security,download,TRUE,1,6.834108738813838,The local police worried about security risks at the airport on the holidays.,101,7,0.9182027649769585,security,risks,1
plausible,familiar,47,6,risks,ninth,FALSE,1,6.9650803456014065,The local police worried about security risks at the airport on the holidays.,101,7,0.9182027649769585,security,risks,0
plausible,familiar,27,4,shower,afford,FALSE,1,6.338594078203183,Sam tried out the shower curtain to be sure it was the right size.,102,7,0.9182027649769585,shower,curtain,1
plausible,familiar,27,5,curtain,innings,TRUE,0,6.594413459749778,Sam tried out the shower curtain to be sure it was the right size.,102,7,0.9182027649769585,shower,curtain,0
implausible,familiar,26,5,package,suppose,FALSE,1,6.4967749901858625,Jane listened carefully to the package deal to make sure it was a bargain.,103,7,0.9182027649769585,package,deal,1
implausible,familiar,26,6,deal,holy,TRUE,1,6.895682697747868,Jane listened carefully to the package deal to make sure it was a bargain.,103,7,0.9182027649769585,package,deal,0
implausible,familiar,44,7,problem,follows,TRUE,1,7.1316985104669115,The teacher was unable to scold the problem child in her class.,106,7,0.9182027649769585,problem,child,1
implausible,familiar,44,8,child,yours,TRUE,1,6.804614520062624,The teacher was unable to scold the problem child in her class.,106,7,0.9182027649769585,problem,child,0
implausible,familiar,28,4,mountain,achieved,TRUE,1,6.635946555686647,Jenny heard the huge mountain lion pacing in its cage.,110,7,0.9182027649769585,mountain,lion,1
implausible,familiar,28,5,lion,troy,TRUE,1,6.733401891837359,Jenny heard the huge mountain lion pacing in its cage.,110,7,0.9182027649769585,mountain,lion,0
plausible,familiar,33,4,savings,extends,FALSE,1,6.837332814685591,John counted on his savings bank because of the bad economy.,116,7,0.9182027649769585,savings,bank,1
plausible,familiar,33,5,bank,okay,FALSE,1,6.582025138892826,John counted on his savings bank because of the bad economy.,116,7,0.9182027649769585,savings,bank,0
implausible,novel,22,3,pencil,admire,TRUE,1,6.580639137284949,Larry emptied the pencil shavings in the wastebasket.,120,7,0.9182027649769585,pencil,shavings,1
implausible,novel,22,4,shavings,droughts,TRUE,1,6.5722825426940075,Larry emptied the pencil shavings in the wastebasket.,120,7,0.9182027649769585,pencil,shavings,0
plausible,novel,11,4,author,denied,FALSE,1,6.131226489483141,The editor liked the author conferences to take place on Tuesday.,122,7,0.9182027649769585,author,conferences,1
plausible,novel,11,5,conferences,helicopters,FALSE,0,7.063903961472068,The editor liked the author conferences to take place on Tuesday.,122,7,0.9182027649769585,author,conferences,0
implausible,novel,4,4,library,deserve,TRUE,1,6.92951677076365,George cleaned off the library table so that he could sort through the books.,124,7,0.9182027649769585,library,table,1
implausible,novel,4,5,table,worry,FALSE,1,6.042632833682381,George cleaned off the library table so that he could sort through the books.,124,7,0.9182027649769585,library,table,0
plausible,novel,21,4,platoon,earners,TRUE,1,6.6240652277998935,Captain Jones ordered the platoon commander to discipline his men better.,125,7,0.9182027649769585,platoon,commander,1
plausible,novel,21,5,commander,disorders,FALSE,1,6.792344427470809,Captain Jones ordered the platoon commander to discipline his men better.,125,7,0.9182027649769585,platoon,commander,0
plausible,familiar,35,5,ballet,misuse,TRUE,1,6.5638555265321274,The last performance of the ballet dancer was warmly applauded.,134,7,0.9182027649769585,ballet,dancer,1
plausible,familiar,35,6,dancer,repeal,TRUE,1,7.145196134997171,The last performance of the ballet dancer was warmly applauded.,134,7,0.9182027649769585,ballet,dancer,0
implausible,novel,22,3,pencil,admire,TRUE,1,6.639875833826536,Larry emptied the pencil shavings in the wastebasket.,4,14,0.8392857142857143,pencil,shavings,1
implausible,novel,22,4,shavings,droughts,FALSE,1,6.230481447578482,Larry emptied the pencil shavings in the wastebasket.,4,14,0.8392857142857143,pencil,shavings,0
plausible,novel,11,4,author,denied,TRUE,1,6.784457062637643,The editor liked the author conferences to take place on Tuesday.,7,14,0.8392857142857143,author,conferences,1
plausible,novel,11,5,conferences,helicopters,TRUE,1,6.822197390620491,The editor liked the author conferences to take place on Tuesday.,7,14,0.8392857142857143,author,conferences,0
plausible,familiar,39,5,safety,define,TRUE,1,6.030685260261263,Mary was reassured about the safety belt because it was a big improvement.,8,14,0.8392857142857143,safety,belt,1
plausible,familiar,39,6,belt,nova,TRUE,0,6.386879319362645,Mary was reassured about the safety belt because it was a big improvement.,8,14,0.8392857142857143,safety,belt,0
implausible,novel,4,4,library,deserve,TRUE,0,6.459904454377535,George cleaned off the library table so that he could sort through the books.,12,14,0.8392857142857143,library,table,1
implausible,novel,4,5,table,worry,FALSE,0,6.173786103901937,George cleaned off the library table so that he could sort through the books.,12,14,0.8392857142857143,library,table,0
plausible,novel,23,5,plant,idiot,TRUE,1,6.74993119378857,The botany professor fed the plant parasites that she was studying.,17,14,0.8392857142857143,plant,parasites,1
plausible,novel,23,6,parasites,emphasise,FALSE,1,7.286191714702382,The botany professor fed the plant parasites that she was studying.,17,14,0.8392857142857143,plant,parasites,0
implausible,familiar,40,4,traffic,anymore,TRUE,1,6.52795791762255,Nora slowed at the traffic light near the new mall.,19,14,0.8392857142857143,traffic,light,1
implausible,familiar,40,5,light,yours,TRUE,1,6.450470422144176,Nora slowed at the traffic light near the new mall.,19,14,0.8392857142857143,traffic,light,0
plausible,novel,17,4,bathroom,treating,TRUE,0,6.2324480165505225,The visitors dirtied the bathroom towels on the first day of their stay.,20,14,0.8392857142857143,bathroom,towels,1
plausible,novel,17,5,towels,repeal,FALSE,1,6.683360945766275,The visitors dirtied the bathroom towels on the first day of their stay.,20,14,0.8392857142857143,bathroom,towels,0
implausible,familiar,38,3,laundry,prefers,TRUE,1,6.651571873589727,John opened the laundry basket and started to throw his dirty clothes in it.,23,14,0.8392857142857143,laundry,basket,1
implausible,familiar,38,4,basket,exodus,TRUE,1,6.777646593635117,John opened the laundry basket and started to throw his dirty clothes in it.,23,14,0.8392857142857143,laundry,basket,0
implausible,familiar,32,3,funeral,depends,FALSE,1,6.113682179832232,Sam phoned the funeral home so that they would send a limousine.,24,14,0.8392857142857143,funeral,home,1
implausible,familiar,32,4,home,rise,TRUE,1,6.111467339502679,Sam phoned the funeral home so that they would send a limousine.,24,14,0.8392857142857143,funeral,home,0
plausible,familiar,45,6,talent,refers,TRUE,1,6.7650389767805414,The anxious starlet didn't have a talent scout who would promote her.,26,14,0.8392857142857143,talent,scout,1
plausible,familiar,45,7,scout,scans,TRUE,1,6.18826412308259,The anxious starlet didn't have a talent scout who would promote her.,26,14,0.8392857142857143,talent,scout,0
implausible,familiar,28,4,mountain,achieved,TRUE,1,7.226209010100671,Jenny heard the huge mountain lion pacing in its cage.,28,14,0.8392857142857143,mountain,lion,1
implausible,familiar,28,5,lion,troy,FALSE,1,6.802394763324311,Jenny heard the huge mountain lion pacing in its cage.,28,14,0.8392857142857143,mountain,lion,0
implausible,familiar,36,6,family,except,TRUE,0,6.366470447731438,The new office complex had a family doctor with a degree from Harvard.,34,14,0.8392857142857143,family,doctor,1
implausible,familiar,36,7,doctor,rivers,TRUE,1,6.665683717782408,The new office complex had a family doctor with a degree from Harvard.,34,14,0.8392857142857143,family,doctor,0
implausible,novel,12,4,backpack,converge,FALSE,1,6.059123195581797,The camper read the backpack label after leaving the store.,35,14,0.8392857142857143,backpack,label,1
implausible,novel,12,5,label,loves,TRUE,1,6.19644412779452,The camper read the backpack label after leaving the store.,35,14,0.8392857142857143,backpack,label,0
implausible,familiar,26,5,package,suppose,TRUE,1,6.654152520183219,Jane listened carefully to the package deal to make sure it was a bargain.,36,14,0.8392857142857143,package,deal,1
implausible,familiar,26,6,deal,holy,TRUE,1,6.656726524178391,Jane listened carefully to the package deal to make sure it was a bargain.,36,14,0.8392857142857143,package,deal,0
implausible,novel,24,4,wiring,hereby,TRUE,1,6.616065185132817,The electrician drew the wiring sketch at the construction site.,37,14,0.8392857142857143,wiring,sketch,1
implausible,novel,24,5,sketch,asylum,FALSE,0,6.47543271670409,The electrician drew the wiring sketch at the construction site.,37,14,0.8392857142857143,wiring,sketch,0
implausible,familiar,44,7,problem,follows,TRUE,1,5.313205979041787,The teacher was unable to scold the problem child in her class.,42,14,0.8392857142857143,problem,child,1
implausible,familiar,44,8,child,yours,TRUE,0,6.852242569051878,The teacher was unable to scold the problem child in her class.,42,14,0.8392857142857143,problem,child,0
implausible,familiar,46,7,weight,except,FALSE,1,6.401917196727186,"It was a great event, but the weight lifter finally won the competition.",45,14,0.8392857142857143,weight,lifter,1
implausible,familiar,46,8,lifter,mucous,FALSE,1,7.063903961472068,"It was a great event, but the weight lifter finally won the competition.",45,14,0.8392857142857143,weight,lifter,0
plausible,familiar,43,7,concert,exports,TRUE,0,6.12029741895095,Jane looked forward to going to the concert hall after it had been remodeled.,55,14,0.8392857142857143,concert,hall,1
plausible,familiar,43,8,hall,sake,FALSE,0,6.298949246855942,Jane looked forward to going to the concert hall after it had been remodeled.,55,14,0.8392857142857143,concert,hall,0
plausible,familiar,29,4,office,happen,TRUE,0,5.986452005284438,David often approached his office work with a feeling of dread.,71,14,0.8392857142857143,office,work,1
plausible,familiar,29,5,work,yeah,TRUE,0,6.184148890937483,David often approached his office work with a feeling of dread.,71,14,0.8392857142857143,office,work,0
plausible,novel,15,4,elephant,incurred,TRUE,1,6.38856140554563,The children loved the elephant shows that took place on Tuesday.,76,14,0.8392857142857143,elephant,shows,1
plausible,novel,15,5,shows,doubt,FALSE,1,6.827629234502852,The children loved the elephant shows that took place on Tuesday.,76,14,0.8392857142857143,elephant,shows,0
plausible,novel,7,4,elevator,exceeded,TRUE,1,6.7464121285733745,The maid caught the elevator mechanic who was goofing off.,77,14,0.8392857142857143,elevator,mechanic,1
plausible,novel,7,5,mechanic,proverbs,TRUE,1,6.335054251498059,The maid caught the elevator mechanic who was goofing off.,77,14,0.8392857142857143,elevator,mechanic,0
plausible,familiar,25,5,dinner,forgot,FALSE,0,6.901737206656574,He looked forward to the dinner table being shipped this week.,79,14,0.8392857142857143,dinner,table,1
plausible,familiar,25,6,table,worry,TRUE,0,6.502790045915623,He looked forward to the dinner table being shipped this week.,79,14,0.8392857142857143,dinner,table,0
implausible,novel,20,4,ceiling,arrives,FALSE,1,6.236369590203704,Ricardo leaned against the ceiling supports while he ate his lunch.,80,14,0.8392857142857143,ceiling,supports,1
implausible,novel,20,5,supports,download,FALSE,1,6.934397209928558,Ricardo leaned against the ceiling supports while he ate his lunch.,80,14,0.8392857142857143,ceiling,supports,0
implausible,novel,14,5,surface,deserve,FALSE,1,6.415096959171596,The astronaut dropped into the surface crater that had been rumored to exist.,84,14,0.8392857142857143,surface,crater,1
implausible,novel,14,6,crater,sexist,TRUE,1,6.776506992372183,The astronaut dropped into the surface crater that had been rumored to exist.,84,14,0.8392857142857143,surface,crater,0
plausible,novel,19,4,school,itself,TRUE,1,6.597145701886651,Lucy walked by the school janitor on the first day of class.,86,14,0.8392857142857143,school,janitor,1
plausible,novel,19,5,janitor,utilise,FALSE,1,6.499787040655854,Lucy walked by the school janitor on the first day of class.,86,14,0.8392857142857143,school,janitor,0
plausible,familiar,33,4,savings,extends,TRUE,1,6.721425700790643,John counted on his savings bank because of the bad economy.,87,14,0.8392857142857143,savings,bank,1
plausible,familiar,33,5,bank,okay,FALSE,0,7.264730177929867,John counted on his savings bank because of the bad economy.,87,14,0.8392857142857143,savings,bank,0
implausible,familiar,30,5,nursery,conquer,TRUE,1,6.695798917058491,The teacher read over the nursery rhyme before reciting it to the class.,96,14,0.8392857142857143,nursery,rhyme,1
implausible,familiar,30,6,rhyme,garde,TRUE,1,6.513230110912307,The teacher read over the nursery rhyme before reciting it to the class.,96,14,0.8392857142857143,nursery,rhyme,0
implausible,novel,16,4,kitchen,anymore,FALSE,1,6.456769655572163,The contractor ordered the kitchen fixtures after the renovation.,97,14,0.8392857142857143,kitchen,fixtures,1
implausible,novel,16,5,fixtures,cinnamon,FALSE,1,6.543911845564792,The contractor ordered the kitchen fixtures after the renovation.,97,14,0.8392857142857143,kitchen,fixtures,0
plausible,familiar,41,5,station,figured,FALSE,1,6.543911845564792,Barbara went over to her station wagon and put some money in the parking meter.,98,14,0.8392857142857143,station,wagon,1
plausible,familiar,41,6,wagon,creep,FALSE,1,6.284134161070802,Barbara went over to her station wagon and put some money in the parking meter.,98,14,0.8392857142857143,station,wagon,0
plausible,familiar,37,3,garbage,onwards,FALSE,1,6.093569770045136,Cindy smelled the garbage truck as it drove by her house.,99,14,0.8392857142857143,garbage,truck,1
plausible,familiar,37,4,truck,sixth,FALSE,0,6.180016653652572,Cindy smelled the garbage truck as it drove by her house.,99,14,0.8392857142857143,garbage,truck,0
plausible,novel,13,4,cabinet,warfare,FALSE,1,6.444131256700441,The dealer polished the cabinet drawers before making the sale.,109,14,0.8392857142857143,cabinet,drawers,1
plausible,novel,13,5,drawers,infancy,FALSE,1,6.532334292222349,The dealer polished the cabinet drawers before making the sale.,109,14,0.8392857142857143,cabinet,drawers,0
plausible,novel,3,4,party,shall,TRUE,1,6.302618975744905,Kim heard about the party outfit that her mother had chosen.,111,14,0.8392857142857143,party,outfit,1
plausible,novel,3,5,outfit,brooks,TRUE,1,6.807934943699926,Kim heard about the party outfit that her mother had chosen.,111,14,0.8392857142857143,party,outfit,0
plausible,novel,21,4,platoon,earners,FALSE,1,6.07993319509559,Captain Jones ordered the platoon commander to discipline his men better.,112,14,0.8392857142857143,platoon,commander,1
plausible,novel,21,5,commander,disorders,TRUE,0,6.5638555265321274,Captain Jones ordered the platoon commander to discipline his men better.,112,14,0.8392857142857143,platoon,commander,0
implausible,familiar,48,3,service,anymore,TRUE,1,6.464588303689961,Gordon calculated the service charges at the local mortgage company.,116,14,0.8392857142857143,service,charges,1
implausible,familiar,48,4,charges,breathe,FALSE,1,6.529418838262226,Gordon calculated the service charges at the local mortgage company.,116,14,0.8392857142857143,service,charges,0
plausible,familiar,35,5,ballet,misuse,FALSE,1,6.486160788944089,The last performance of the ballet dancer was warmly applauded.,121,14,0.8392857142857143,ballet,dancer,1
plausible,familiar,35,6,dancer,repeal,FALSE,0,6.434546518787453,The last performance of the ballet dancer was warmly applauded.,121,14,0.8392857142857143,ballet,dancer,0
plausible,familiar,27,4,shower,afford,TRUE,1,6.3784261836515865,Sam tried out the shower curtain to be sure it was the right size.,126,14,0.8392857142857143,shower,curtain,1
plausible,familiar,27,5,curtain,innings,FALSE,1,6.891625897052253,Sam tried out the shower curtain to be sure it was the right size.,126,14,0.8392857142857143,shower,curtain,0
implausible,familiar,42,2,taxi,heal,FALSE,1,6.77078942390898,The new taxi driver installed the license plate for the cab he just bought.,127,14,0.8392857142857143,taxi,driver,1
implausible,familiar,42,3,driver,stupid,TRUE,1,6.990256500493881,The new taxi driver installed the license plate for the cab he just bought.,127,14,0.8392857142857143,taxi,driver,0
implausible,familiar,34,3,season,anyone,TRUE,0,6.261491684321042,Arnie bought the season tickets though they cost more than last year.,129,14,0.8392857142857143,season,tickets,1
implausible,familiar,34,4,tickets,applies,TRUE,1,6.98933526597456,Arnie bought the season tickets though they cost more than last year.,129,14,0.8392857142857143,season,tickets,0
plausible,familiar,31,6,pillow,derive,TRUE,0,5.996452088619021,The kids decided to move the pillow fight when the video was over.,131,14,0.8392857142857143,pillow,fight,1
plausible,familiar,31,7,fight,terms,FALSE,1,6.415096959171596,The kids decided to move the pillow fight when the video was over.,131,14,0.8392857142857143,pillow,fight,0
implausible,novel,8,3,homework,utilized,TRUE,1,6.263398262591624,Lindsay counted her homework essays before going to bed.,133,14,0.8392857142857143,homework,essays,1
implausible,novel,8,4,essays,beasts,TRUE,1,6.5638555265321274,Lindsay counted her homework essays before going to bed.,133,14,0.8392857142857143,homework,essays,0
plausible,novel,12,4,backpack,converge,FALSE,1,6.872128101338986,The camper removed the backpack label after leaving the store.,4,15,0.9271371199082042,backpack,label,1
plausible,novel,12,5,label,loves,FALSE,1,6.3578422665081,The camper removed the backpack label after leaving the store.,4,15,0.9271371199082042,backpack,label,0
plausible,familiar,36,5,family,except,FALSE,1,6.472346294500901,The new suburb had a family doctor with a degree from Harvard.,7,15,0.9271371199082042,family,doctor,1
plausible,familiar,36,6,doctor,rivers,FALSE,1,6.450470422144176,The new suburb had a family doctor with a degree from Harvard.,7,15,0.9271371199082042,family,doctor,0
implausible,novel,17,4,bathroom,treating,FALSE,1,6.763884908562435,The visitors folded the bathroom towels on the first day of their stay.,12,15,0.9271371199082042,bathroom,towels,1
implausible,novel,17,5,towels,repeal,FALSE,1,6.0844994130751715,The visitors folded the bathroom towels on the first day of their stay.,12,15,0.9271371199082042,bathroom,towels,0
plausible,novel,6,4,casserole,evaluates,FALSE,1,6.489204931325317,Mr. Randolph stirred the casserole spices into the pot.,19,15,0.9271371199082042,casserole,spices,1
plausible,novel,6,5,spices,expire,FALSE,1,7.123672785204607,Mr. Randolph stirred the casserole spices into the pot.,19,15,0.9271371199082042,casserole,spices,0
plausible,novel,14,5,surface,deserve,FALSE,1,6.448889394146858,The astronaut landed on the surface crater that had been rumored to exist.,21,15,0.9271371199082042,surface,crater,1
plausible,novel,14,6,crater,sexist,FALSE,1,6.999422467507961,The astronaut landed on the surface crater that had been rumored to exist.,21,15,0.9271371199082042,surface,crater,0
plausible,familiar,32,4,funeral,depends,TRUE,1,6.502790045915623,Sam went to the funeral home so that they would send a limousine.,22,15,0.9271371199082042,funeral,home,1
plausible,familiar,32,5,home,rise,TRUE,1,6.6895992691789665,Sam went to the funeral home so that they would send a limousine.,22,15,0.9271371199082042,funeral,home,0
plausible,familiar,30,5,nursery,conquer,FALSE,1,7.024649030453636,The teacher looked over the nursery rhyme before reciting it to the class.,27,15,0.9271371199082042,nursery,rhyme,1
plausible,familiar,30,6,rhyme,garde,FALSE,1,6.440946540632921,The teacher looked over the nursery rhyme before reciting it to the class.,27,15,0.9271371199082042,nursery,rhyme,0
plausible,familiar,44,7,problem,follows,FALSE,1,6.490723534502507,The teacher was unable to understand the problem child in her class.,30,15,0.9271371199082042,problem,child,1
plausible,familiar,44,8,child,yours,FALSE,1,6.473890696352274,The teacher was unable to understand the problem child in her class.,30,15,0.9271371199082042,problem,child,0
implausible,novel,15,4,elephant,incurred,FALSE,1,6.476972362889683,The children attended the elephant shows that took place on Tuesday.,42,15,0.9271371199082042,elephant,shows,1
implausible,novel,15,5,shows,doubt,TRUE,0,6.424869023905388,The children attended the elephant shows that took place on Tuesday.,42,15,0.9271371199082042,elephant,shows,0
implausible,novel,3,3,party,shall,FALSE,1,6.97354301952014,Kim modeled the party outfit that her mother had chosen.,43,15,0.9271371199082042,party,outfit,1
implausible,novel,3,4,outfit,brooks,TRUE,1,6.853299093186078,Kim modeled the party outfit that her mother had chosen.,43,15,0.9271371199082042,party,outfit,0
plausible,familiar,34,3,season,anyone,FALSE,1,6.704414354964107,Arnie enjoyed the season tickets though they cost more than last year.,44,15,0.9271371199082042,season,tickets,1
plausible,familiar,34,4,tickets,applies,TRUE,0,6.706862336602747,Arnie enjoyed the season tickets though they cost more than last year.,44,15,0.9271371199082042,season,tickets,0
implausible,novel,21,6,commander,disorders,TRUE,1,7.261927092702751,Captain Jones whispered to the platoon commander to discipline his men better.,45,15,0.9271371199082042,platoon,commander,0
plausible,novel,22,3,pencil,admire,TRUE,1,6.483107351457199,Larry dropped the pencil shavings in the wastebasket.,46,15,0.9271371199082042,pencil,shavings,1
plausible,novel,22,4,shavings,droughts,FALSE,1,6.642486801367256,Larry dropped the pencil shavings in the wastebasket.,46,15,0.9271371199082042,pencil,shavings,0
plausible,novel,24,5,wiring,hereby,FALSE,1,6.837332814685591,The electrician laid out the wiring sketch at the construction site.,50,15,0.9271371199082042,wiring,sketch,1
plausible,novel,24,6,sketch,asylum,FALSE,1,6.342121418721152,The electrician laid out the wiring sketch at the construction site.,50,15,0.9271371199082042,wiring,sketch,0
implausible,familiar,43,6,concert,exports,FALSE,1,6.760414691083428,Jane looked forward to visiting the concert hall after it had been remodeled.,59,15,0.9271371199082042,concert,hall,1
implausible,familiar,43,7,hall,sake,TRUE,1,6.352629396319567,Jane looked forward to visiting the concert hall after it had been remodeled.,59,15,0.9271371199082042,concert,hall,0
plausible,familiar,48,5,service,anymore,FALSE,1,6.60934924316738,Gordon was annoyed by the service charges at the local mortgage company.,61,15,0.9271371199082042,service,charges,1
plausible,familiar,48,6,charges,breathe,TRUE,1,6.752270376141742,Gordon was annoyed by the service charges at the local mortgage company.,61,15,0.9271371199082042,service,charges,0
plausible,novel,2,5,muffin,entail,TRUE,1,6.717804695023691,The hungry raccoon ate the muffin container while going through the garbage.,67,15,0.9271371199082042,muffin,container,1
plausible,novel,2,6,container,undermine,TRUE,1,7.301822342137932,The hungry raccoon ate the muffin container while going through the garbage.,67,15,0.9271371199082042,muffin,container,0
plausible,novel,10,4,automobile,advocating,FALSE,1,6.473890696352274,The mechanic repaired the automobile radio on his lunch break.,69,15,0.9271371199082042,automobile,radio,1
plausible,novel,10,5,radio,favor,FALSE,1,7.033506484287697,The mechanic repaired the automobile radio on his lunch break.,69,15,0.9271371199082042,automobile,radio,0
implausible,novel,13,4,cabinet,warfare,TRUE,1,6.874198495453294,The dealer counted the cabinet drawers before making the sale.,70,15,0.9271371199082042,cabinet,drawers,1
implausible,novel,13,5,drawers,infancy,TRUE,1,6.871091294610546,The dealer counted the cabinet drawers before making the sale.,70,15,0.9271371199082042,cabinet,drawers,0
implausible,novel,23,5,plant,idiot,FALSE,1,6.499787040655854,The botany professor counted the plant parasites that she was studying.,72,15,0.9271371199082042,plant,parasites,1
implausible,novel,23,6,parasites,emphasise,TRUE,1,6.656726524178391,The botany professor counted the plant parasites that she was studying.,72,15,0.9271371199082042,plant,parasites,0
implausible,familiar,45,6,talent,refers,FALSE,1,6.175867270105761,The anxious starlet hadn't met a talent scout who would promote her.,79,15,0.9271371199082042,talent,scout,1
implausible,familiar,45,7,scout,scans,FALSE,1,5.905361848054571,The anxious starlet hadn't met a talent scout who would promote her.,79,15,0.9271371199082042,talent,scout,0
plausible,familiar,42,2,taxi,heal,TRUE,1,7.133295954896068,The new taxi driver needed the license plate for the cab he just bought.,83,15,0.9271371199082042,taxi,driver,1
plausible,familiar,42,3,driver,stupid,TRUE,1,6.522092798170152,The new taxi driver needed the license plate for the cab he just bought.,83,15,0.9271371199082042,taxi,driver,0
implausible,familiar,31,5,pillow,derive,TRUE,1,6.821107472256465,The kids started having the pillow fight when the video was over.,91,15,0.9271371199082042,pillow,fight,1
implausible,familiar,31,6,fight,terms,FALSE,0,6.180016653652572,The kids started having the pillow fight when the video was over.,91,15,0.9271371199082042,pillow,fight,0
implausible,novel,11,4,author,denied,TRUE,1,7.886081401775745,The editor planned the author conferences to take place on Tuesday.,92,15,0.9271371199082042,author,conferences,1
implausible,novel,11,5,conferences,helicopters,TRUE,1,6.90875477931522,The editor planned the author conferences to take place on Tuesday.,92,15,0.9271371199082042,author,conferences,0
implausible,familiar,35,5,ballet,misuse,FALSE,0,7.528331766707247,The graceful leap of the ballet dancer was warmly applauded.,94,15,0.9271371199082042,ballet,dancer,1
implausible,familiar,35,6,dancer,repeal,TRUE,1,6.905753276311464,The graceful leap of the ballet dancer was warmly applauded.,94,15,0.9271371199082042,ballet,dancer,0
implausible,familiar,33,5,savings,extends,TRUE,1,6.480044561926653,John did business with his savings bank because of the bad economy.,100,15,0.9271371199082042,savings,bank,1
implausible,familiar,33,6,bank,okay,TRUE,1,6.588926477533519,John did business with his savings bank because of the bad economy.,100,15,0.9271371199082042,savings,bank,0
plausible,familiar,40,6,traffic,anymore,TRUE,1,6.9782137426306985,Nora was held up by the traffic light near the new mall.,101,15,0.9271371199082042,traffic,light,1
plausible,familiar,40,7,light,yours,TRUE,1,6.555356891810665,Nora was held up by the traffic light near the new mall.,101,15,0.9271371199082042,traffic,light,0
plausible,familiar,26,4,package,suppose,TRUE,0,6.551080335043404,Jane carefully examined the package deal to make sure it was a bargain.,105,15,0.9271371199082042,package,deal,1
plausible,familiar,26,5,deal,holy,TRUE,1,7.010311867307229,Jane carefully examined the package deal to make sure it was a bargain.,105,15,0.9271371199082042,package,deal,0
plausible,familiar,46,7,weight,except,FALSE,1,6.906754778648554,"It required a great effort, but the weight lifter finally won the competition.",106,15,0.9271371199082042,weight,lifter,1
plausible,familiar,46,8,lifter,mucous,FALSE,1,6.499787040655854,"It required a great effort, but the weight lifter finally won the competition.",106,15,0.9271371199082042,weight,lifter,0
implausible,novel,19,3,school,itself,TRUE,1,6.4692503167957724,Lucy met the school janitor on the first day of class.,109,15,0.9271371199082042,school,janitor,1
implausible,novel,19,4,janitor,utilise,FALSE,1,6.306275286948016,Lucy met the school janitor on the first day of class.,109,15,0.9271371199082042,school,janitor,0
implausible,novel,7,4,elevator,exceeded,FALSE,1,6.828712071641684,The maid scolded the elevator mechanic who was goofing off.,110,15,0.9271371199082042,elevator,mechanic,1
implausible,novel,7,5,mechanic,proverbs,FALSE,1,6.089044875446846,The maid scolded the elevator mechanic who was goofing off.,110,15,0.9271371199082042,elevator,mechanic,0
plausible,novel,20,3,ceiling,arrives,TRUE,1,6.543911845564792,Ricardo painted the ceiling supports while he ate his lunch.,111,15,0.9271371199082042,ceiling,supports,1
plausible,novel,20,4,supports,download,FALSE,0,7.0192966537150445,Ricardo painted the ceiling supports while he ate his lunch.,111,15,0.9271371199082042,ceiling,supports,0
implausible,familiar,25,4,dinner,forgot,FALSE,1,6.38856140554563,He boxed up the dinner table being shipped this week.,112,15,0.9271371199082042,dinner,table,1
implausible,familiar,25,5,table,worry,TRUE,1,6.492239835020471,He boxed up the dinner table being shipped this week.,112,15,0.9271371199082042,dinner,table,0
implausible,familiar,41,5,station,figured,TRUE,1,7.0192966537150445,Barbara went over in her station wagon and put some money in the parking meter.,113,15,0.9271371199082042,station,wagon,1
implausible,familiar,41,6,wagon,creep,TRUE,1,6.313548046277095,Barbara went over in her station wagon and put some money in the parking meter.,113,15,0.9271371199082042,station,wagon,0
implausible,familiar,37,3,garbage,onwards,FALSE,1,6.646390514847729,Cindy heard the garbage truck as it drove by her house.,114,15,0.9271371199082042,garbage,truck,1
implausible,familiar,37,4,truck,sixth,FALSE,1,6.3473892096560105,Cindy heard the garbage truck as it drove by her house.,114,15,0.9271371199082042,garbage,truck,0
plausible,familiar,38,4,laundry,prefers,TRUE,1,6.951772164398911,John went to the laundry basket and started to throw his dirty clothes in it.,116,15,0.9271371199082042,laundry,basket,1
plausible,familiar,38,5,basket,exodus,FALSE,1,6.887552571664617,John went to the laundry basket and started to throw his dirty clothes in it.,116,15,0.9271371199082042,laundry,basket,0
plausible,familiar,28,6,mountain,achieved,FALSE,1,6.45833828334479,Jenny looked out on the huge mountain lion pacing in its cage.,117,15,0.9271371199082042,mountain,lion,1
plausible,familiar,28,7,lion,troy,TRUE,1,6.734591659972948,Jenny looked out on the huge mountain lion pacing in its cage.,117,15,0.9271371199082042,mountain,lion,0
implausible,familiar,29,5,office,happen,FALSE,1,6.674561391814426,David often sorted through his office work with a feeling of dread.,122,15,0.9271371199082042,office,work,1
implausible,familiar,29,6,work,yeah,TRUE,1,6.419994928147142,David often sorted through his office work with a feeling of dread.,122,15,0.9271371199082042,office,work,0
plausible,novel,16,4,kitchen,anymore,FALSE,1,6.582025138892826,The contractor admired the kitchen fixtures after the renovation.,123,15,0.9271371199082042,kitchen,fixtures,1
plausible,novel,16,5,fixtures,cinnamon,TRUE,1,6.786716950605081,The contractor admired the kitchen fixtures after the renovation.,123,15,0.9271371199082042,kitchen,fixtures,0
implausible,familiar,39,3,safety,define,FALSE,1,6.725033642166843,Mary bought the safety belt because it was a big improvement.,125,15,0.9271371199082042,safety,belt,1
implausible,familiar,39,4,belt,nova,FALSE,1,6.903747257584598,Mary bought the safety belt because it was a big improvement.,125,15,0.9271371199082042,safety,belt,0
implausible,familiar,27,4,shower,afford,FALSE,1,6.635946555686647,Sam stood behind the shower curtain to be sure it was the right size.,133,15,0.9271371199082042,shower,curtain,1
implausible,familiar,27,5,curtain,innings,TRUE,1,7.324489979348532,Sam stood behind the shower curtain to be sure it was the right size.,133,15,0.9271371199082042,shower,curtain,0
plausible,familiar,41,5,station,figured,TRUE,1,7.31986492980897,Barbara went over to her station wagon and put some money in the parking meter.,2,16,0.9931856899488927,station,wagon,1
plausible,familiar,41,6,wagon,creep,TRUE,1,7.422971251049421,Barbara went over to her station wagon and put some money in the parking meter.,2,16,0.9931856899488927,station,wagon,0
implausible,familiar,42,2,taxi,heal,TRUE,1,6.86171134048073,The new taxi driver installed the license plate for the cab he just bought.,8,16,0.9931856899488927,taxi,driver,1
implausible,familiar,42,3,driver,stupid,FALSE,1,6.79346613258001,The new taxi driver installed the license plate for the cab he just bought.,8,16,0.9931856899488927,taxi,driver,0
